
time;gFx;gFy;gFz;ax;ay;az;wx;wy;wz;Bx;By;Bz;Azimuth;Pitch;Roll;Gain;Latitude;Longitude;Speed (m/s);
0,039123;0,0000;0,0000;0,0000;0,0000;0,0000;0,0000;-0,0342;0,2272;0,6170;0,0000;0,0000;0,0000;0,0000;0,0000;0,0000;-∞;0,00000000;0,00000000;0,00000000;
0,050111;0,0000;0,0000;0,0000;0,0000;0,0000;0,0000;-0,0342;0,2272;0,6170;0,0000;0,0000;0,0000;0,0000;0,0000;0,0000;-∞;40,48085333;-4,07185833;0,13743083;
0,070131;-0,0064;-0,0178;1,0041;0,0000;0,0000;0,0000;-0,0342;0,2272;0,6170;0,0000;0,0000;0,0000;0,0000;0,0000;0,0000;-∞;40,48085333;-4,07185833;0,13743083;
0,071362;-0,0064;-0,0178;1,0041;0,0000;0,0000;0,0000;-0,0342;0,2272;0,6170;0,0000;0,0000;0,0000;0,0000;0,0000;0,0000;-∞;40,48085333;-4,07185833;0,13743083;
0,072028;-0,0064;-0,0178;1,0041;0,0000;0,0000;0,0000;-0,0342;0,2272;0,6170;13,3200;-37,1400;-44,2200;0,0000;0,0000;0,0000;-∞;40,48085333;-4,07185833;0,13743083;
0,090181;-0,0064;-0,0178;1,0041;0,0000;0,0000;0,0000;-0,0342;0,2272;0,6170;13,3200;-37,1400;-44,2200;0,0000;0,0000;0,0000;-∞;40,48085333;-4,07185833;0,13743083;
0,110061;-0,0064;-0,0178;1,0041;0,0000;0,0000;0,0000;-0,0018;-0,0006;-0,0006;13,3200;-37,1400;-44,2200;0,0000;0,0000;0,0000;-∞;40,48085333;-4,07185833;0,13743083;
0,130846;-0,0056;-0,0195;1,0043;0,0000;0,0000;0,0000;-0,0018;-0,0006;-0,0006;13,3200;-37,1400;-44,2200;0,0000;0,0000;0,0000;-∞;40,48085333;-4,07185833;0,13743083;
0,132874;-0,0056;-0,0195;1,0043;0,0000;0,0000;0,0000;-0,0018;-0,0006;-0,0006;13,3200;-37,1400;-44,2200;346,3231;1,1148;-0,3205;-∞;40,48085333;-4,07185833;0,13743083;
0,134782;-0,0056;-0,0195;1,0043;-0,0002;-0,0007;0,0379;-0,0018;-0,0006;-0,0006;13,3200;-37,1400;-44,2200;346,3231;1,1148;-0,3205;-∞;40,48085333;-4,07185833;0,13743083;
0,135932;-0,0056;-0,0195;1,0043;-0,0002;-0,0007;0,0379;-0,0018;-0,0006;-0,0006;13,3200;-37,1400;-44,2200;346,3231;1,1148;-0,3205;-∞;40,48085333;-4,07185833;0,13743083;
0,136887;-0,0056;-0,0195;1,0043;-0,0002;-0,0007;0,0379;-0,0018;-0,0006;-0,0006;13,2000;-36,8400;-44,2200;346,3231;1,1148;-0,3205;-∞;40,48085333;-4,07185833;0,13743083;
0,151186;-0,0056;-0,0195;1,0043;-0,0002;-0,0007;0,0379;-0,0024;-0,0006;-0,0012;13,2000;-36,8400;-44,2200;346,3231;1,1148;-0,3205;-∞;40,48085333;-4,07185833;0,13743083;
0,170030;-0,0056;-0,0195;1,0043;-0,0002;-0,0007;0,0379;-0,0018;-0,0012;-0,0012;13,2000;-36,8400;-44,2200;346,3231;1,1148;-0,3205;-∞;40,48085333;-4,07185833;0,13743083;
0,190065;-0,0037;-0,0181;1,0051;-0,0002;-0,0007;0,0379;-0,0018;-0,0012;-0,0012;13,2000;-36,8400;-44,2200;346,3231;1,1148;-0,3205;-∞;40,48085333;-4,07185833;0,13743083;
0,191318;-0,0037;-0,0181;1,0051;-0,0002;-0,0007;0,0379;-0,0018;-0,0012;-0,0012;13,2000;-36,8400;-44,2200;306,3276;1,0755;-0,2672;-∞;40,48085333;-4,07185833;0,13743083;
0,192400;-0,0037;-0,0181;1,0051;0,0098;0,0069;0,0449;-0,0018;-0,0012;-0,0012;13,2000;-36,8400;-44,2200;306,3276;1,0755;-0,2672;-∞;40,48085333;-4,07185833;0,13743083;
0,193479;-0,0037;-0,0181;1,0051;0,0098;0,0069;0,0449;-0,0024;-0,0006;-0,0012;13,2000;-36,8400;-44,2200;306,3276;1,0755;-0,2672;-∞;40,48085333;-4,07185833;0,13743083;
0,194438;-0,0037;-0,0181;1,0051;0,0098;0,0069;0,0449;-0,0024;-0,0006;-0,0012;12,9600;-36,3000;-44,1000;306,3276;1,0755;-0,2672;-∞;40,48085333;-4,07185833;0,13743083;
0,210048;-0,0037;-0,0181;1,0051;0,0098;0,0069;0,0449;-0,0024;-0,0012;-0,0006;12,9600;-36,3000;-44,1000;306,3276;1,0755;-0,2672;-∞;40,48085333;-4,07185833;0,13743083;
0,230368;-0,0037;-0,0181;1,0051;0,0098;0,0069;0,0449;-0,0024;-0,0006;-0,0012;12,9600;-36,3000;-44,1000;306,3276;1,0755;-0,2672;-∞;40,48085333;-4,07185833;0,13743083;
0,250065;0,0049;-0,0232;1,0041;0,0098;0,0069;0,0449;-0,0024;-0,0006;-0,0012;12,9600;-36,3000;-44,1000;306,3276;1,0755;-0,2672;-∞;40,48085333;-4,07185833;0,13743083;
0,251296;0,0049;-0,0232;1,0041;0,0098;0,0069;0,0449;-0,0024;-0,0006;-0,0012;12,9600;-36,3000;-44,1000;266,3368;1,2040;0,0232;-∞;40,48085333;-4,07185833;0,13743083;
0,252372;0,0049;-0,0232;1,0041;0,0439;-0,0214;0,0357;-0,0024;-0,0006;-0,0012;12,9600;-36,3000;-44,1000;266,3368;1,2040;0,0232;-∞;40,48085333;-4,07185833;0,13743083;
0,253426;0,0049;-0,0232;1,0041;0,0439;-0,0214;0,0357;-0,0037;0,0000;-0,0018;12,9600;-36,3000;-44,1000;266,3368;1,2040;0,0232;-∞;40,48085333;-4,07185833;0,13743083;
0,254437;0,0049;-0,0232;1,0041;0,0439;-0,0214;0,0357;-0,0037;0,0000;-0,0018;13,0200;-36,1800;-43,8000;266,3368;1,2040;0,0232;-∞;40,48085333;-4,07185833;0,13743083;
0,270020;0,0049;-0,0232;1,0041;0,0439;-0,0214;0,0357;-0,0006;0,0000;0,0000;13,0200;-36,1800;-43,8000;266,3368;1,2040;0,0232;-∞;40,48085333;-4,07185833;0,13743083;
0,289993;0,0049;-0,0232;1,0041;0,0439;-0,0214;0,0357;-0,0012;0,0000;0,0000;13,0200;-36,1800;-43,8000;266,3368;1,2040;0,0232;-∞;40,48085333;-4,07185833;0,13743083;
0,310107;0,0024;-0,0213;1,0036;0,0439;-0,0214;0,0357;-0,0012;0,0000;0,0000;13,0200;-36,1800;-43,8000;266,3368;1,2040;0,0232;-∞;40,48085333;-4,07185833;0,13743083;
0,311393;0,0024;-0,0213;1,0036;0,0439;-0,0214;0,0357;-0,0012;0,0000;0,0000;13,0200;-36,1800;-43,8000;226,3401;1,2094;0,0792;-∞;40,48085333;-4,07185833;0,13743083;
0,312521;0,0024;-0,0213;1,0036;0,0104;-0,0013;0,0309;-0,0012;0,0000;0,0000;13,0200;-36,1800;-43,8000;226,3401;1,2094;0,0792;-∞;40,48085333;-4,07185833;0,13743083;
0,313681;0,0024;-0,0213;1,0036;0,0104;-0,0013;0,0309;-0,0024;-0,0012;-0,0012;13,0200;-36,1800;-43,8000;226,3401;1,2094;0,0792;-∞;40,48085333;-4,07185833;0,13743083;
0,314550;0,0024;-0,0213;1,0036;0,0104;-0,0013;0,0309;-0,0024;-0,0012;-0,0012;12,6000;-36,0000;-43,9800;226,3401;1,2094;0,0792;-∞;40,48085333;-4,07185833;0,13743083;
0,330393;0,0024;-0,0213;1,0036;0,0104;-0,0013;0,0309;-0,0037;-0,0006;-0,0012;12,6000;-36,0000;-43,9800;226,3401;1,2094;0,0792;-∞;40,48085333;-4,07185833;0,13743083;
0,351717;0,0024;-0,0213;1,0036;0,0104;-0,0013;0,0309;-0,0012;0,0000;0,0000;12,6000;-36,0000;-43,9800;226,3401;1,2094;0,0792;-∞;40,48085333;-4,07185833;0,13743083;
0,370315;-0,0093;-0,0169;1,0051;0,0104;-0,0013;0,0309;-0,0012;0,0000;0,0000;12,6000;-36,0000;-43,9800;226,3401;1,2094;0,0792;-∞;40,48085333;-4,07185833;0,13743083;
0,372513;-0,0093;-0,0169;1,0051;0,0104;-0,0013;0,0309;-0,0012;0,0000;0,0000;12,6000;-36,0000;-43,9800;198,9294;1,2037;0,0491;-∞;40,48085333;-4,07185833;0,13743083;
0,374802;-0,0093;-0,0169;1,0051;-0,0994;0,0408;0,0453;-0,0012;0,0000;0,0000;12,6000;-36,0000;-43,9800;198,9294;1,2037;0,0491;-∞;40,48085333;-4,07185833;0,13743083;
0,376525;-0,0093;-0,0169;1,0051;-0,0994;0,0408;0,0453;-0,0024;0,0006;0,0006;12,6000;-36,0000;-43,9800;198,9294;1,2037;0,0491;-∞;40,48085333;-4,07185833;0,13743083;
0,378066;-0,0093;-0,0169;1,0051;-0,0994;0,0408;0,0453;-0,0024;0,0006;0,0006;12,5400;-35,7600;-43,8600;198,9294;1,2037;0,0491;-∞;40,48085333;-4,07185833;0,13743083;
0,390540;-0,0093;-0,0169;1,0051;-0,0994;0,0408;0,0453;-0,0006;-0,0012;-0,0012;12,5400;-35,7600;-43,8600;198,9294;1,2037;0,0491;-∞;40,48085333;-4,07185833;0,13743083;
0,410744;-0,0093;-0,0169;1,0051;-0,0994;0,0408;0,0453;-0,0018;0,0000;-0,0006;12,5400;-35,7600;-43,8600;198,9294;1,2037;0,0491;-∞;40,48085333;-4,07185833;0,13743083;
0,430779;-0,0056;-0,0151;1,0041;-0,0994;0,0408;0,0453;-0,0018;0,0000;-0,0006;12,5400;-35,7600;-43,8600;198,9294;1,2037;0,0491;-∞;40,48085333;-4,07185833;0,13743083;
0,432583;-0,0056;-0,0151;1,0041;-0,0994;0,0408;0,0453;-0,0018;0,0000;-0,0006;12,5400;-35,7600;-43,8600;198,9299;1,1800;0,0100;-∞;40,48085333;-4,07185833;0,13743083;
0,434536;-0,0056;-0,0151;1,0041;-0,0568;0,0535;0,0356;-0,0018;0,0000;-0,0006;12,5400;-35,7600;-43,8600;198,9299;1,1800;0,0100;-∞;40,48085333;-4,07185833;0,13743083;
0,436194;-0,0056;-0,0151;1,0041;-0,0568;0,0535;0,0356;-0,0031;0,0012;0,0006;12,5400;-35,7600;-43,8600;198,9299;1,1800;0,0100;-∞;40,48085333;-4,07185833;0,13743083;
0,437834;-0,0056;-0,0151;1,0041;-0,0568;0,0535;0,0356;-0,0031;0,0012;0,0006;12,4200;-36,0600;-44,2200;198,9299;1,1800;0,0100;-∞;40,48085333;-4,07185833;0,13743083;
0,453651;-0,0056;-0,0151;1,0041;-0,0568;0,0535;0,0356;-0,0031;0,0000;-0,0006;12,4200;-36,0600;-44,2200;198,9299;1,1800;0,0100;-∞;40,48085333;-4,07185833;0,13743083;
0,471101;-0,0056;-0,0151;1,0041;-0,0568;0,0535;0,0356;-0,0012;-0,0018;-0,0012;12,4200;-36,0600;-44,2200;198,9299;1,1800;0,0100;-∞;40,48085333;-4,07185833;0,13743083;
0,490963;-0,0083;-0,0164;1,0026;-0,0568;0,0535;0,0356;-0,0012;-0,0018;-0,0012;12,4200;-36,0600;-44,2200;198,9299;1,1800;0,0100;-∞;40,48085333;-4,07185833;0,13743083;
0,493502;-0,0083;-0,0164;1,0026;-0,0568;0,0535;0,0356;-0,0012;-0,0018;-0,0012;12,4200;-36,0600;-44,2200;198,9060;1,1561;-0,0426;-∞;40,48085333;-4,07185833;0,13743083;
0,495184;-0,0083;-0,0164;1,0026;-0,0741;0,0375;0,0212;-0,0012;-0,0018;-0,0012;12,4200;-36,0600;-44,2200;198,9060;1,1561;-0,0426;-∞;40,48085333;-4,07185833;0,13743083;
0,496733;-0,0083;-0,0164;1,0026;-0,0741;0,0375;0,0212;-0,0012;0,0000;0,0000;12,4200;-36,0600;-44,2200;198,9060;1,1561;-0,0426;-∞;40,48085333;-4,07185833;0,13743083;
0,498182;-0,0083;-0,0164;1,0026;-0,0741;0,0375;0,0212;-0,0012;0,0000;0,0000;12,4800;-35,8800;-44,1600;198,9060;1,1561;-0,0426;-∞;40,48085333;-4,07185833;0,13743083;
0,510945;-0,0083;-0,0164;1,0026;-0,0741;0,0375;0,0212;-0,0031;0,0000;0,0006;12,4800;-35,8800;-44,1600;198,9060;1,1561;-0,0426;-∞;40,48085333;-4,07185833;0,13743083;
0,530911;-0,0083;-0,0164;1,0026;-0,0741;0,0375;0,0212;-0,0012;-0,0018;-0,0012;12,4800;-35,8800;-44,1600;198,9060;1,1561;-0,0426;-∞;40,48085333;-4,07185833;0,13743083;
0,550888;0,0037;-0,0205;1,0021;-0,0741;0,0375;0,0212;-0,0012;-0,0018;-0,0012;12,4800;-35,8800;-44,1600;198,9060;1,1561;-0,0426;-∞;40,48085333;-4,07185833;0,13743083;
0,552938;0,0037;-0,0205;1,0021;-0,0741;0,0375;0,0212;-0,0012;-0,0018;-0,0012;12,4800;-35,8800;-44,1600;198,8985;1,1597;-0,0413;-∞;40,48085333;-4,07185833;0,13743083;
0,554738;0,0037;-0,0205;1,0021;0,0430;-0,0026;0,0164;-0,0012;-0,0018;-0,0012;12,4800;-35,8800;-44,1600;198,8985;1,1597;-0,0413;-∞;40,48085333;-4,07185833;0,13743083;
0,556342;0,0037;-0,0205;1,0021;0,0430;-0,0026;0,0164;-0,0018;-0,0012;-0,0006;12,4800;-35,8800;-44,1600;198,8985;1,1597;-0,0413;-∞;40,48085333;-4,07185833;0,13743083;
0,557783;0,0037;-0,0205;1,0021;0,0430;-0,0026;0,0164;-0,0018;-0,0012;-0,0006;12,4200;-35,6400;-43,9800;198,8985;1,1597;-0,0413;-∞;40,48085333;-4,07185833;0,13743083;
0,570732;0,0037;-0,0205;1,0021;0,0430;-0,0026;0,0164;-0,0018;0,0006;0,0000;12,4200;-35,6400;-43,9800;198,8985;1,1597;-0,0413;-∞;40,48085333;-4,07185833;0,13743083;
0,591012;0,0037;-0,0205;1,0021;0,0430;-0,0026;0,0164;-0,0024;-0,0012;-0,0012;12,4200;-35,6400;-43,9800;198,8985;1,1597;-0,0413;-∞;40,48085333;-4,07185833;0,13743083;
0,610946;0,0027;-0,0200;1,0029;0,0430;-0,0026;0,0164;-0,0024;-0,0012;-0,0012;12,4200;-35,6400;-43,9800;198,8985;1,1597;-0,0413;-∞;40,48085333;-4,07185833;0,13743083;
0,613022;0,0027;-0,0200;1,0029;0,0430;-0,0026;0,0164;-0,0024;-0,0012;-0,0012;12,4200;-35,6400;-43,9800;198,8954;1,1651;-0,0368;-∞;40,48085333;-4,07185833;0,13743083;
0,615030;0,0027;-0,0200;1,0029;0,0326;0,0031;0,0236;-0,0024;-0,0012;-0,0012;12,4200;-35,6400;-43,9800;198,8954;1,1651;-0,0368;-∞;40,48085333;-4,07185833;0,13743083;
0,617050;0,0027;-0,0200;1,0029;0,0326;0,0031;0,0236;-0,0018;-0,0018;-0,0018;12,4200;-35,6400;-43,9800;198,8954;1,1651;-0,0368;-∞;40,48085333;-4,07185833;0,13743083;
0,618609;0,0027;-0,0200;1,0029;0,0326;0,0031;0,0236;-0,0018;-0,0018;-0,0018;12,3600;-36,1800;-44,3400;198,8954;1,1651;-0,0368;-∞;40,48085333;-4,07185833;0,13743083;
0,630766;0,0027;-0,0200;1,0029;0,0326;0,0031;0,0236;-0,0018;-0,0012;0,0000;12,3600;-36,1800;-44,3400;198,8954;1,1651;-0,0368;-∞;40,48085333;-4,07185833;0,13743083;
0,650858;0,0027;-0,0200;1,0029;0,0326;0,0031;0,0236;-0,0024;0,0000;-0,0006;12,3600;-36,1800;-44,3400;198,8954;1,1651;-0,0368;-∞;40,48085333;-4,07185833;0,13743083;
0,670790;-0,0032;-0,0149;1,0051;0,0326;0,0031;0,0236;-0,0024;0,0000;-0,0006;12,3600;-36,1800;-44,3400;198,8954;1,1651;-0,0368;-∞;40,48085333;-4,07185833;0,13743083;
0,673021;-0,0032;-0,0149;1,0051;0,0326;0,0031;0,0236;-0,0024;0,0000;-0,0006;12,3600;-36,1800;-44,3400;198,8485;1,1602;-0,0356;-∞;40,48085333;-4,07185833;0,13743083;
0,675524;-0,0032;-0,0149;1,0051;-0,0250;0,0525;0,0451;-0,0024;0,0000;-0,0006;12,3600;-36,1800;-44,3400;198,8485;1,1602;-0,0356;-∞;40,48085333;-4,07185833;0,13743083;
0,677487;-0,0032;-0,0149;1,0051;-0,0250;0,0525;0,0451;-0,0018;-0,0006;-0,0012;12,3600;-36,1800;-44,3400;198,8485;1,1602;-0,0356;-∞;40,48085333;-4,07185833;0,13743083;
0,679384;-0,0032;-0,0149;1,0051;-0,0250;0,0525;0,0451;-0,0018;-0,0006;-0,0012;12,4200;-36,3600;-43,9800;198,8485;1,1602;-0,0356;-∞;40,48085333;-4,07185833;0,13743083;
0,690797;-0,0032;-0,0149;1,0051;-0,0250;0,0525;0,0451;-0,0018;-0,0006;-0,0012;12,4200;-36,3600;-43,9800;198,8485;1,1602;-0,0356;67,4181;40,48085333;-4,07185833;0,13743083;
0,710978;-0,0032;-0,0149;1,0051;-0,0250;0,0525;0,0451;-0,0031;0,0000;-0,0012;12,4200;-36,3600;-43,9800;198,8485;1,1602;-0,0356;67,4181;40,48085333;-4,07185833;0,13743083;
0,730771;-0,0046;-0,0203;1,0029;-0,0250;0,0525;0,0451;-0,0031;0,0000;-0,0012;12,4200;-36,3600;-43,9800;198,8485;1,1602;-0,0356;67,4181;40,48085333;-4,07185833;0,13743083;
0,732783;-0,0046;-0,0203;1,0029;-0,0250;0,0525;0,0451;-0,0031;0,0000;-0,0012;12,4200;-36,3600;-43,9800;198,8129;1,1631;-0,0410;67,4181;40,48085333;-4,07185833;0,13743083;
0,734662;-0,0046;-0,0203;1,0029;-0,0385;0,0003;0,0236;-0,0031;0,0000;-0,0012;12,4200;-36,3600;-43,9800;198,8129;1,1631;-0,0410;67,4181;40,48085333;-4,07185833;0,13743083;
0,736235;-0,0046;-0,0203;1,0029;-0,0385;0,0003;0,0236;-0,0018;0,0000;0,0000;12,4200;-36,3600;-43,9800;198,8129;1,1631;-0,0410;67,4181;40,48085333;-4,07185833;0,13743083;
0,737709;-0,0046;-0,0203;1,0029;-0,0385;0,0003;0,0236;-0,0018;0,0000;0,0000;12,1800;-36,3600;-44,2200;198,8129;1,1631;-0,0410;67,4181;40,48085333;-4,07185833;0,13743083;
0,750758;-0,0046;-0,0203;1,0029;-0,0385;0,0003;0,0236;-0,0018;-0,0012;-0,0012;12,1800;-36,3600;-44,2200;198,8129;1,1631;-0,0410;67,4181;40,48085333;-4,07185833;0,13743083;
0,770970;-0,0046;-0,0203;1,0029;-0,0385;0,0003;0,0236;-0,0012;-0,0012;-0,0012;12,1800;-36,3600;-44,2200;198,8129;1,1631;-0,0410;67,4181;40,48085333;-4,07185833;0,13743083;
0,790961;-0,0037;-0,0195;1,0046;-0,0385;0,0003;0,0236;-0,0012;-0,0012;-0,0012;12,1800;-36,3600;-44,2200;198,8129;1,1631;-0,0410;67,4181;40,48085333;-4,07185833;0,13743083;
0,792869;-0,0037;-0,0195;1,0046;-0,0385;0,0003;0,0236;-0,0012;-0,0012;-0,0012;12,1800;-36,3600;-44,2200;198,7026;1,1650;-0,0458;67,4181;40,48085333;-4,07185833;0,13743083;
0,794830;-0,0037;-0,0195;1,0046;-0,0281;0,0079;0,0403;-0,0012;-0,0012;-0,0012;12,1800;-36,3600;-44,2200;198,7026;1,1650;-0,0458;67,4181;40,48085333;-4,07185833;0,13743083;
0,796498;-0,0037;-0,0195;1,0046;-0,0281;0,0079;0,0403;-0,0031;0,0000;-0,0012;12,1800;-36,3600;-44,2200;198,7026;1,1650;-0,0458;67,4181;40,48085333;-4,07185833;0,13743083;
0,798086;-0,0037;-0,0195;1,0046;-0,0281;0,0079;0,0403;-0,0031;0,0000;-0,0012;12,3600;-36,3000;-44,1000;198,7026;1,1650;-0,0458;67,4181;40,48085333;-4,07185833;0,13743083;
0,810976;-0,0037;-0,0195;1,0046;-0,0281;0,0079;0,0403;-0,0012;-0,0018;-0,0006;12,3600;-36,3000;-44,1000;198,7026;1,1650;-0,0458;67,4181;40,48085333;-4,07185833;0,13743083;
0,829908;-0,0037;-0,0195;1,0046;-0,0281;0,0079;0,0403;-0,0012;-0,0012;-0,0006;12,3600;-36,3000;-44,1000;198,7026;1,1650;-0,0458;67,4181;40,48085333;-4,07185833;0,13743083;
0,850568;-0,0020;-0,0186;1,0043;-0,0281;0,0079;0,0403;-0,0012;-0,0012;-0,0006;12,3600;-36,3000;-44,1000;198,7026;1,1650;-0,0458;67,4181;40,48085333;-4,07185833;0,13743083;
0,852563;-0,0020;-0,0186;1,0043;-0,0281;0,0079;0,0403;-0,0012;-0,0012;-0,0006;12,3600;-36,3000;-44,1000;198,6779;1,1673;-0,0467;67,4181;40,48085333;-4,07185833;0,13743083;
0,854290;-0,0020;-0,0186;1,0043;-0,0112;0,0178;0,0380;-0,0012;-0,0012;-0,0006;12,3600;-36,3000;-44,1000;198,6779;1,1673;-0,0467;67,4181;40,48085333;-4,07185833;0,13743083;
0,855954;-0,0020;-0,0186;1,0043;-0,0112;0,0178;0,0380;-0,0024;0,0012;-0,0006;12,3600;-36,3000;-44,1000;198,6779;1,1673;-0,0467;67,4181;40,48085333;-4,07185833;0,13743083;
0,857417;-0,0020;-0,0186;1,0043;-0,0112;0,0178;0,0380;-0,0024;0,0012;-0,0006;12,3600;-35,7000;-43,8000;198,6779;1,1673;-0,0467;67,4181;40,48085333;-4,07185833;0,13743083;
0,870182;-0,0020;-0,0186;1,0043;-0,0112;0,0178;0,0380;-0,0024;0,0000;-0,0006;12,3600;-35,7000;-43,8000;198,6779;1,1673;-0,0467;67,4181;40,48085333;-4,07185833;0,13743083;
0,890687;-0,0020;-0,0186;1,0043;-0,0112;0,0178;0,0380;-0,0012;-0,0006;-0,0006;12,3600;-35,7000;-43,8000;198,6779;1,1673;-0,0467;67,4181;40,48085333;-4,07185833;0,13743083;
0,911290;-0,0015;-0,0195;1,0046;-0,0112;0,0178;0,0380;-0,0012;-0,0006;-0,0006;12,3600;-35,7000;-43,8000;198,6779;1,1673;-0,0467;67,4181;40,48085333;-4,07185833;0,13743083;
0,913164;-0,0015;-0,0195;1,0046;-0,0112;0,0178;0,0380;-0,0012;-0,0006;-0,0006;12,3600;-35,7000;-43,8000;198,6791;1,1723;-0,0492;67,4181;40,48085333;-4,07185833;0,13743083;
0,915664;-0,0015;-0,0195;1,0046;-0,0059;0,0091;0,0404;-0,0012;-0,0006;-0,0006;12,3600;-35,7000;-43,8000;198,6791;1,1723;-0,0492;67,4181;40,48085333;-4,07185833;0,13743083;
0,917405;-0,0015;-0,0195;1,0046;-0,0059;0,0091;0,0404;-0,0012;-0,0012;-0,0006;12,3600;-35,7000;-43,8000;198,6791;1,1723;-0,0492;67,4181;40,48085333;-4,07185833;0,13743083;
0,918944;-0,0015;-0,0195;1,0046;-0,0059;0,0091;0,0404;-0,0012;-0,0012;-0,0006;12,6000;-35,8200;-43,9200;198,6791;1,1723;-0,0492;67,4181;40,48085333;-4,07185833;0,13743083;
0,931358;-0,0015;-0,0195;1,0046;-0,0059;0,0091;0,0404;-0,0018;-0,0006;-0,0006;12,6000;-35,8200;-43,9200;198,6791;1,1723;-0,0492;67,4181;40,48085333;-4,07185833;0,13743083;
0,950360;-0,0015;-0,0195;1,0046;-0,0059;0,0091;0,0404;-0,0012;0,0000;-0,0006;12,6000;-35,8200;-43,9200;198,6791;1,1723;-0,0492;67,4181;40,48085333;-4,07185833;0,13743083;
0,970818;-0,0022;-0,0188;1,0053;-0,0059;0,0091;0,0404;-0,0012;0,0000;-0,0006;12,6000;-35,8200;-43,9200;198,6791;1,1723;-0,0492;67,4181;40,48085333;-4,07185833;0,13743083;
0,972906;-0,0022;-0,0188;1,0053;-0,0059;0,0091;0,0404;-0,0012;0,0000;-0,0006;12,6000;-35,8200;-43,9200;198,6901;1,1741;-0,0494;67,4181;40,48085333;-4,07185833;0,13743083;
0,974733;-0,0022;-0,0188;1,0053;-0,0131;0,0166;0,0476;-0,0012;0,0000;-0,0006;12,6000;-35,8200;-43,9200;198,6901;1,1741;-0,0494;67,4181;40,48085333;-4,07185833;0,13743083;
0,976467;-0,0022;-0,0188;1,0053;-0,0131;0,0166;0,0476;-0,0018;0,0000;-0,0012;12,6000;-35,8200;-43,9200;198,6901;1,1741;-0,0494;67,4181;40,48085333;-4,07185833;0,13743083;
0,978018;-0,0022;-0,0188;1,0053;-0,0131;0,0166;0,0476;-0,0018;0,0000;-0,0012;12,5400;-36,1200;-44,1000;198,6901;1,1741;-0,0494;67,4181;40,48085333;-4,07185833;0,13743083;
0,990975;-0,0022;-0,0188;1,0053;-0,0131;0,0166;0,0476;-0,0018;-0,0006;-0,0006;12,5400;-36,1200;-44,1000;198,6901;1,1741;-0,0494;72,5253;40,48085333;-4,07185833;0,13743083;
1,010913;-0,0022;-0,0188;1,0053;-0,0131;0,0166;0,0476;-0,0018;-0,0006;-0,0012;12,5400;-36,1200;-44,1000;198,6901;1,1741;-0,0494;72,5253;40,48085333;-4,07185833;0,13743083;
1,031048;-0,0017;-0,0166;1,0043;-0,0131;0,0166;0,0476;-0,0018;-0,0006;-0,0012;12,5400;-36,1200;-44,1000;198,6901;1,1741;-0,0494;72,5253;40,48085333;-4,07185833;0,13743083;
1,032977;-0,0017;-0,0166;1,0043;-0,0131;0,0166;0,0476;-0,0018;-0,0006;-0,0012;12,5400;-36,1200;-44,1000;198,6934;1,1719;-0,0510;72,5253;40,48085333;-4,07185833;0,13743083;
1,034851;-0,0017;-0,0166;1,0043;-0,0080;0,0378;0,0380;-0,0018;-0,0006;-0,0012;12,5400;-36,1200;-44,1000;198,6934;1,1719;-0,0510;72,5253;40,48085333;-4,07185833;0,13743083;
1,036442;-0,0017;-0,0166;1,0043;-0,0080;0,0378;0,0380;-0,0018;-0,0006;-0,0006;12,5400;-36,1200;-44,1000;198,6934;1,1719;-0,0510;72,5253;40,48085333;-4,07185833;0,13743083;
1,037930;-0,0017;-0,0166;1,0043;-0,0080;0,0378;0,0380;-0,0018;-0,0006;-0,0006;12,6600;-36,4200;-44,1000;198,6934;1,1719;-0,0510;72,5253;40,48085333;-4,07185833;0,13743083;
1,054108;-0,0017;-0,0166;1,0043;-0,0080;0,0378;0,0380;-0,0018;0,0000;0,0000;12,6600;-36,4200;-44,1000;198,6934;1,1719;-0,0510;72,5253;40,48085333;-4,07185833;0,13743083;
1,070926;-0,0017;-0,0166;1,0043;-0,0080;0,0378;0,0380;-0,0018;-0,0006;-0,0012;12,6600;-36,4200;-44,1000;198,6934;1,1719;-0,0510;72,5253;40,48085333;-4,07185833;0,13743083;
1,091108;-0,0029;-0,0203;1,0036;-0,0080;0,0378;0,0380;-0,0018;-0,0006;-0,0012;12,6600;-36,4200;-44,1000;198,6934;1,1719;-0,0510;72,5253;40,48085333;-4,07185833;0,13743083;
1,092971;-0,0029;-0,0203;1,0036;-0,0080;0,0378;0,0380;-0,0018;-0,0006;-0,0012;12,6600;-36,4200;-44,1000;198,6954;1,1750;-0,0528;72,5253;40,48085333;-4,07185833;0,13743083;
1,094845;-0,0029;-0,0203;1,0036;-0,0197;0,0024;0,0308;-0,0018;-0,0006;-0,0012;12,6600;-36,4200;-44,1000;198,6954;1,1750;-0,0528;72,5253;40,48085333;-4,07185833;0,13743083;
1,096424;-0,0029;-0,0203;1,0036;-0,0197;0,0024;0,0308;-0,0012;0,0000;-0,0006;12,6600;-36,4200;-44,1000;198,6954;1,1750;-0,0528;72,5253;40,48085333;-4,07185833;0,13743083;
1,097999;-0,0029;-0,0203;1,0036;-0,0197;0,0024;0,0308;-0,0012;0,0000;-0,0006;12,7800;-36,7800;-44,2800;198,6954;1,1750;-0,0528;72,5253;40,48085333;-4,07185833;0,13743083;
1,110782;-0,0029;-0,0203;1,0036;-0,0197;0,0024;0,0308;-0,0012;-0,0006;0,0000;12,7800;-36,7800;-44,2800;198,6954;1,1750;-0,0528;72,5253;40,48085333;-4,07185833;0,13743083;
1,130983;-0,0029;-0,0203;1,0036;-0,0197;0,0024;0,0308;-0,0018;0,0000;-0,0006;12,7800;-36,7800;-44,2800;198,6954;1,1750;-0,0528;72,5253;40,48085333;-4,07185833;0,13743083;
1,150996;-0,0024;-0,0166;1,0026;-0,0197;0,0024;0,0308;-0,0018;0,0000;-0,0006;12,7800;-36,7800;-44,2800;198,6954;1,1750;-0,0528;72,5253;40,48085333;-4,07185833;0,13743083;
1,152669;-0,0024;-0,0166;1,0026;-0,0197;0,0024;0,0308;-0,0018;0,0000;-0,0006;12,7800;-36,7800;-44,2800;198,6967;1,1709;-0,0568;72,5253;40,48085333;-4,07185833;0,13743083;
1,154587;-0,0024;-0,0166;1,0026;-0,0142;0,0376;0,0212;-0,0018;0,0000;-0,0006;12,7800;-36,7800;-44,2800;198,6967;1,1709;-0,0568;72,5253;40,48085333;-4,07185833;0,13743083;
1,156412;-0,0024;-0,0166;1,0026;-0,0142;0,0376;0,0212;-0,0012;-0,0012;0,0000;12,7800;-36,7800;-44,2800;198,6967;1,1709;-0,0568;72,5253;40,48085333;-4,07185833;0,13743083;
1,157826;-0,0024;-0,0166;1,0026;-0,0142;0,0376;0,0212;-0,0012;-0,0012;0,0000;13,3200;-36,5400;-44,3400;198,6967;1,1709;-0,0568;72,5253;40,48085333;-4,07185833;0,13743083;
1,170857;-0,0024;-0,0166;1,0026;-0,0142;0,0376;0,0212;-0,0012;0,0000;0,0000;13,3200;-36,5400;-44,3400;198,6967;1,1709;-0,0568;72,5253;40,48085333;-4,07185833;0,13743083;
1,190776;-0,0024;-0,0166;1,0026;-0,0142;0,0376;0,0212;-0,0024;-0,0006;0,0000;13,3200;-36,5400;-44,3400;198,6967;1,1709;-0,0568;72,5253;40,48085333;-4,07185833;0,13743083;
1,211003;0,0029;-0,0213;1,0046;-0,0142;0,0376;0,0212;-0,0024;-0,0006;0,0000;13,3200;-36,5400;-44,3400;198,6967;1,1709;-0,0568;72,5253;40,48085333;-4,07185833;0,13743083;
1,212699;0,0029;-0,0213;1,0046;-0,0142;0,0376;0,0212;-0,0024;-0,0006;0,0000;13,3200;-36,5400;-44,3400;198,8344;1,1751;-0,0527;72,5253;40,48085333;-4,07185833;0,13743083;
1,214488;0,0029;-0,0213;1,0046;0,0378;-0,0072;0,0404;-0,0024;-0,0006;0,0000;13,3200;-36,5400;-44,3400;198,8344;1,1751;-0,0527;72,5253;40,48085333;-4,07185833;0,13743083;
1,216695;0,0029;-0,0213;1,0046;0,0378;-0,0072;0,0404;-0,0018;-0,0006;-0,0006;13,3200;-36,5400;-44,3400;198,8344;1,1751;-0,0527;72,5253;40,48085333;-4,07185833;0,13743083;
1,218306;0,0029;-0,0213;1,0046;0,0378;-0,0072;0,0404;-0,0018;-0,0006;-0,0006;13,6200;-36,0000;-44,5800;198,8344;1,1751;-0,0527;72,5253;40,48085333;-4,07185833;0,13743083;
1,230231;0,0029;-0,0213;1,0046;0,0378;-0,0072;0,0404;-0,0012;0,0000;-0,0006;13,6200;-36,0000;-44,5800;198,8344;1,1751;-0,0527;72,5253;40,48085333;-4,07185833;0,13743083;
1,250806;0,0029;-0,0213;1,0046;0,0378;-0,0072;0,0404;-0,0024;0,0000;-0,0006;13,6200;-36,0000;-44,5800;198,8344;1,1751;-0,0527;72,5253;40,48085333;-4,07185833;0,13743083;
1,271508;-0,0012;-0,0181;1,0053;0,0378;-0,0072;0,0404;-0,0024;0,0000;-0,0006;13,6200;-36,0000;-44,5800;198,8344;1,1751;-0,0527;72,5253;40,48085333;-4,07185833;0,13743083;
1,273173;-0,0012;-0,0181;1,0053;0,0378;-0,0072;0,0404;-0,0024;0,0000;-0,0006;13,6200;-36,0000;-44,5800;199,2094;1,1778;-0,0511;72,5253;40,48085333;-4,07185833;0,13743083;
1,275071;-0,0012;-0,0181;1,0053;-0,0032;0,0244;0,0476;-0,0024;0,0000;-0,0006;13,6200;-36,0000;-44,5800;199,2094;1,1778;-0,0511;72,5253;40,48085333;-4,07185833;0,13743083;
1,276688;-0,0012;-0,0181;1,0053;-0,0032;0,0244;0,0476;-0,0018;-0,0006;-0,0012;13,6200;-36,0000;-44,5800;199,2094;1,1778;-0,0511;72,5253;40,48085333;-4,07185833;0,13743083;
1,278178;-0,0012;-0,0181;1,0053;-0,0032;0,0244;0,0476;-0,0018;-0,0006;-0,0012;13,8600;-35,8800;-44,4000;199,2094;1,1778;-0,0511;72,5253;40,48085333;-4,07185833;0,13743083;
1,290497;-0,0012;-0,0181;1,0053;-0,0032;0,0244;0,0476;-0,0018;-0,0006;0,0000;13,8600;-35,8800;-44,4000;199,2094;1,1778;-0,0511;75,6123;40,48085333;-4,07185833;0,13743083;
1,310328;-0,0012;-0,0181;1,0053;-0,0032;0,0244;0,0476;-0,0024;0,0006;-0,0006;13,8600;-35,8800;-44,4000;199,2094;1,1778;-0,0511;75,6123;40,48085333;-4,07185833;0,13743083;
1,330699;-0,0059;-0,0193;1,0065;-0,0032;0,0244;0,0476;-0,0024;0,0006;-0,0006;13,8600;-35,8800;-44,4000;199,2094;1,1778;-0,0511;75,6123;40,48085333;-4,07185833;0,13743083;
1,332706;-0,0059;-0,0193;1,0065;-0,0032;0,0244;0,0476;-0,0024;0,0006;-0,0006;13,8600;-35,8800;-44,4000;199,5930;1,1801;-0,0569;75,6123;40,48085333;-4,07185833;0,13743083;
1,335350;-0,0059;-0,0193;1,0065;-0,0477;0,0128;0,0595;-0,0024;0,0006;-0,0006;13,8600;-35,8800;-44,4000;199,5930;1,1801;-0,0569;75,6123;40,48085333;-4,07185833;0,13743083;
1,337875;-0,0059;-0,0193;1,0065;-0,0477;0,0128;0,0595;-0,0024;0,0000;-0,0006;13,8600;-35,8800;-44,4000;199,5930;1,1801;-0,0569;75,6123;40,48085333;-4,07185833;0,13743083;
1,339241;-0,0059;-0,0193;1,0065;-0,0477;0,0128;0,0595;-0,0024;0,0000;-0,0006;13,4400;-36,0600;-44,5200;199,5930;1,1801;-0,0569;75,6123;40,48085333;-4,07185833;0,13743083;
1,352067;-0,0059;-0,0193;1,0065;-0,0477;0,0128;0,0595;-0,0012;-0,0006;-0,0012;13,4400;-36,0600;-44,5200;199,5930;1,1801;-0,0569;75,6123;40,48085333;-4,07185833;0,13743083;
1,370549;-0,0059;-0,0193;1,0065;-0,0477;0,0128;0,0595;-0,0018;-0,0006;0,0000;13,4400;-36,0600;-44,5200;199,5930;1,1801;-0,0569;75,6123;40,48085333;-4,07185833;0,13743083;
1,390504;0,0032;-0,0208;1,0048;-0,0477;0,0128;0,0595;-0,0018;-0,0006;0,0000;13,4400;-36,0600;-44,5200;199,5930;1,1801;-0,0569;75,6123;40,48085333;-4,07185833;0,13743083;
1,392451;0,0032;-0,0208;1,0048;-0,0477;0,0128;0,0595;-0,0018;-0,0006;0,0000;13,4400;-36,0600;-44,5200;199,6160;1,1855;-0,0542;75,6123;40,48085333;-4,07185833;0,13743083;
1,394223;0,0032;-0,0208;1,0048;0,0404;-0,0006;0,0428;-0,0018;-0,0006;0,0000;13,4400;-36,0600;-44,5200;199,6160;1,1855;-0,0542;75,6123;40,48085333;-4,07185833;0,13743083;
1,395719;0,0032;-0,0208;1,0048;0,0404;-0,0006;0,0428;-0,0024;0,0000;-0,0006;13,4400;-36,0600;-44,5200;199,6160;1,1855;-0,0542;75,6123;40,48085333;-4,07185833;0,13743083;
1,397174;0,0032;-0,0208;1,0048;0,0404;-0,0006;0,0428;-0,0024;0,0000;-0,0006;12,6600;-36,4800;-44,7000;199,6160;1,1855;-0,0542;75,6123;40,48085333;-4,07185833;0,13743083;
1,410378;0,0032;-0,0208;1,0048;0,0404;-0,0006;0,0428;-0,0012;0,0000;-0,0012;12,6600;-36,4800;-44,7000;199,6160;1,1855;-0,0542;75,6123;40,48085333;-4,07185833;0,13743083;
1,430334;0,0032;-0,0208;1,0048;0,0404;-0,0006;0,0428;-0,0012;-0,0012;-0,0006;12,6600;-36,4800;-44,7000;199,6160;1,1855;-0,0542;75,6123;40,48085333;-4,07185833;0,13743083;
1,450915;-0,0024;-0,0191;1,0068;0,0404;-0,0006;0,0428;-0,0012;-0,0012;-0,0006;12,6600;-36,4800;-44,7000;199,6160;1,1855;-0,0542;75,6123;40,48085333;-4,07185833;0,13743083;
1,452775;-0,0024;-0,0191;1,0068;0,0404;-0,0006;0,0428;-0,0012;-0,0012;-0,0006;12,6600;-36,4800;-44,7000;199,4290;1,1895;-0,0531;75,6123;40,48085333;-4,07185833;0,13743083;
1,454520;-0,0024;-0,0191;1,0068;-0,0149;0,0168;0,0620;-0,0012;-0,0012;-0,0006;12,6600;-36,4800;-44,7000;199,4290;1,1895;-0,0531;75,6123;40,48085333;-4,07185833;0,13743083;
1,456102;-0,0024;-0,0191;1,0068;-0,0149;0,0168;0,0620;-0,0024;0,0000;-0,0006;12,6600;-36,4800;-44,7000;199,4290;1,1895;-0,0531;75,6123;40,48085333;-4,07185833;0,13743083;
1,457421;-0,0024;-0,0191;1,0068;-0,0149;0,0168;0,0620;-0,0024;0,0000;-0,0006;12,1800;-37,0200;-44,1600;199,4290;1,1895;-0,0531;75,6123;40,48085333;-4,07185833;0,13743083;
1,470366;-0,0024;-0,0191;1,0068;-0,0149;0,0168;0,0620;-0,0012;-0,0006;-0,0006;12,1800;-37,0200;-44,1600;199,4290;1,1895;-0,0531;75,6123;40,48085333;-4,07185833;0,13743083;
1,490472;-0,0024;-0,0191;1,0068;-0,0149;0,0168;0,0620;-0,0006;0,0000;-0,0006;12,1800;-37,0200;-44,1600;199,4290;1,1895;-0,0531;75,6123;40,48085333;-4,07185833;0,13743083;
1,510866;-0,0015;-0,0176;1,0065;-0,0149;0,0168;0,0620;-0,0006;0,0000;-0,0006;12,1800;-37,0200;-44,1600;199,4290;1,1895;-0,0531;75,6123;40,48085333;-4,07185833;0,13743083;
1,512625;-0,0015;-0,0176;1,0065;-0,0149;0,0168;0,0620;-0,0006;0,0000;-0,0006;12,1800;-37,0200;-44,1600;198,8637;1,1888;-0,0533;75,6123;40,48085333;-4,07185833;0,13743083;
1,514457;-0,0015;-0,0176;1,0065;-0,0052;0,0311;0,0596;-0,0006;0,0000;-0,0006;12,1800;-37,0200;-44,1600;198,8637;1,1888;-0,0533;75,6123;40,48085333;-4,07185833;0,13743083;
1,516599;-0,0015;-0,0176;1,0065;-0,0052;0,0311;0,0596;-0,0018;0,0006;0,0000;12,1800;-37,0200;-44,1600;198,8637;1,1888;-0,0533;75,6123;40,48085333;-4,07185833;0,13743083;
1,518675;-0,0015;-0,0176;1,0065;-0,0052;0,0311;0,0596;-0,0018;0,0006;0,0000;11,7000;-37,2000;-44,1000;198,8637;1,1888;-0,0533;75,6123;40,48085333;-4,07185833;0,13743083;
1,531126;-0,0015;-0,0176;1,0065;-0,0052;0,0311;0,0596;-0,0012;0,0000;-0,0012;11,7000;-37,2000;-44,1000;198,8637;1,1888;-0,0533;75,6123;40,48085333;-4,07185833;0,13743083;
1,550724;-0,0015;-0,0176;1,0065;-0,0052;0,0311;0,0596;-0,0006;0,0000;-0,0006;11,7000;-37,2000;-44,1000;198,8637;1,1888;-0,0533;75,6123;40,48085333;-4,07185833;0,13743083;
1,570670;-0,0051;-0,0191;1,0053;-0,0052;0,0311;0,0596;-0,0006;0,0000;-0,0006;11,7000;-37,2000;-44,1000;198,8637;1,1888;-0,0533;75,6123;40,48085333;-4,07185833;0,13743083;
1,572511;-0,0051;-0,0191;1,0053;-0,0052;0,0311;0,0596;-0,0006;0,0000;-0,0006;11,7000;-37,2000;-44,1000;198,1778;1,1866;-0,0611;75,6123;40,48085333;-4,07185833;0,13743083;
1,574313;-0,0051;-0,0191;1,0053;-0,0398;0,0163;0,0476;-0,0006;0,0000;-0,0006;11,7000;-37,2000;-44,1000;198,1778;1,1866;-0,0611;75,6123;40,48085333;-4,07185833;0,13743083;
1,575925;-0,0051;-0,0191;1,0053;-0,0398;0,0163;0,0476;-0,0024;0,0000;-0,0006;11,7000;-37,2000;-44,1000;198,1778;1,1866;-0,0611;75,6123;40,48085333;-4,07185833;0,13743083;
1,577277;-0,0051;-0,0191;1,0053;-0,0398;0,0163;0,0476;-0,0024;0,0000;-0,0006;12,3000;-37,6800;-43,9800;198,1778;1,1866;-0,0611;75,6123;40,48085333;-4,07185833;0,13743083;
1,591012;-0,0051;-0,0191;1,0053;-0,0398;0,0163;0,0476;-0,0018;0,0000;-0,0012;12,3000;-37,6800;-43,9800;198,1778;1,1866;-0,0611;74,0010;40,48085333;-4,07185833;0,13743083;
1,610698;-0,0051;-0,0191;1,0053;-0,0398;0,0163;0,0476;-0,0024;0,0006;-0,0006;12,3000;-37,6800;-43,9800;198,1778;1,1866;-0,0611;74,0010;40,48085333;-4,07185833;0,13743083;
1,630916;-0,0056;-0,0166;1,0053;-0,0398;0,0163;0,0476;-0,0024;0,0006;-0,0006;12,3000;-37,6800;-43,9800;198,1778;1,1866;-0,0611;74,0010;40,48085333;-4,07185833;0,13743083;
1,632669;-0,0056;-0,0166;1,0053;-0,0398;0,0163;0,0476;-0,0024;0,0006;-0,0006;12,3000;-37,6800;-43,9800;198,1173;1,1796;-0,0772;74,0010;40,48085333;-4,07185833;0,13743083;
1,634668;-0,0056;-0,0166;1,0053;-0,0419;0,0391;0,0476;-0,0024;0,0006;-0,0006;12,3000;-37,6800;-43,9800;198,1173;1,1796;-0,0772;74,0010;40,48085333;-4,07185833;0,13743083;
1,636282;-0,0056;-0,0166;1,0053;-0,0419;0,0391;0,0476;-0,0031;0,0006;0,0000;12,3000;-37,6800;-43,9800;198,1173;1,1796;-0,0772;74,0010;40,48085333;-4,07185833;0,13743083;
1,637743;-0,0056;-0,0166;1,0053;-0,0419;0,0391;0,0476;-0,0031;0,0006;0,0000;12,6000;-37,0800;-43,7400;198,1173;1,1796;-0,0772;74,0010;40,48085333;-4,07185833;0,13743083;
1,653632;-0,0056;-0,0166;1,0053;-0,0419;0,0391;0,0476;-0,0024;0,0000;-0,0006;12,6000;-37,0800;-43,7400;198,1173;1,1796;-0,0772;74,0010;40,48085333;-4,07185833;0,13743083;
1,671049;-0,0056;-0,0166;1,0053;-0,0419;0,0391;0,0476;-0,0018;-0,0012;-0,0018;12,6000;-37,0800;-43,7400;198,1173;1,1796;-0,0772;74,0010;40,48085333;-4,07185833;0,13743083;
1,690697;-0,0022;-0,0169;1,0048;-0,0419;0,0391;0,0476;-0,0018;-0,0012;-0,0018;12,6000;-37,0800;-43,7400;198,1173;1,1796;-0,0772;74,0010;40,48085333;-4,07185833;0,13743083;
1,692317;-0,0022;-0,0169;1,0048;-0,0419;0,0391;0,0476;-0,0018;-0,0012;-0,0018;12,6000;-37,0800;-43,7400;198,1249;1,1743;-0,0838;74,0010;40,48085333;-4,07185833;0,13743083;
1,694278;-0,0022;-0,0169;1,0048;-0,0072;0,0358;0,0428;-0,0018;-0,0012;-0,0018;12,6000;-37,0800;-43,7400;198,1249;1,1743;-0,0838;74,0010;40,48085333;-4,07185833;0,13743083;
1,695840;-0,0022;-0,0169;1,0048;-0,0072;0,0358;0,0428;-0,0024;0,0012;0,0000;12,6000;-37,0800;-43,7400;198,1249;1,1743;-0,0838;74,0010;40,48085333;-4,07185833;0,13743083;
1,697251;-0,0022;-0,0169;1,0048;-0,0072;0,0358;0,0428;-0,0024;0,0012;0,0000;12,6000;-36,9000;-44,3400;198,1249;1,1743;-0,0838;74,0010;40,48085333;-4,07185833;0,13743083;
1,710739;-0,0022;-0,0169;1,0048;-0,0072;0,0358;0,0428;-0,0024;0,0012;0,0000;12,6000;-36,9000;-44,3400;198,1249;1,1743;-0,0838;74,0010;40,48085333;-4,07185833;0,13743083;
1,730689;-0,0022;-0,0169;1,0048;-0,0072;0,0358;0,0428;-0,0018;-0,0006;-0,0006;12,6000;-36,9000;-44,3400;198,1249;1,1743;-0,0838;74,0010;40,48085333;-4,07185833;0,13743083;
1,750638;0,0022;-0,0208;1,0043;-0,0072;0,0358;0,0428;-0,0018;-0,0006;-0,0006;12,6000;-36,9000;-44,3400;198,1249;1,1743;-0,0838;74,0010;40,48085333;-4,07185833;0,13743083;
1,752481;0,0022;-0,0208;1,0043;-0,0072;0,0358;0,0428;-0,0018;-0,0006;-0,0006;12,6000;-36,9000;-44,3400;198,1352;1,1791;-0,0839;74,0010;40,48085333;-4,07185833;0,13743083;
1,754230;0,0022;-0,0208;1,0043;0,0359;-0,0017;0,0380;-0,0018;-0,0006;-0,0006;12,6000;-36,9000;-44,3400;198,1352;1,1791;-0,0839;74,0010;40,48085333;-4,07185833;0,13743083;
1,755699;0,0022;-0,0208;1,0043;0,0359;-0,0017;0,0380;-0,0018;-0,0006;-0,0006;12,6000;-36,9000;-44,3400;198,1352;1,1791;-0,0839;74,0010;40,48085333;-4,07185833;0,13743083;
1,757699;0,0022;-0,0208;1,0043;0,0359;-0,0017;0,0380;-0,0018;-0,0006;-0,0006;12,6000;-36,9000;-44,5200;198,1352;1,1791;-0,0839;74,0010;40,48085333;-4,07185833;0,13743083;
1,770886;0,0022;-0,0208;1,0043;0,0359;-0,0017;0,0380;-0,0018;0,0006;0,0000;12,6000;-36,9000;-44,5200;198,1352;1,1791;-0,0839;74,0010;40,48085333;-4,07185833;0,13743083;
1,791289;0,0022;-0,0208;1,0043;0,0359;-0,0017;0,0380;-0,0018;0,0000;-0,0006;12,6000;-36,9000;-44,5200;198,1352;1,1791;-0,0839;74,0010;40,48085333;-4,07185833;0,13743083;
1,810692;0,0015;-0,0176;1,0063;0,0359;-0,0017;0,0380;-0,0018;0,0000;-0,0006;12,6000;-36,9000;-44,5200;198,1352;1,1791;-0,0839;74,0010;40,48085333;-4,07185833;0,13743083;
1,812485;0,0015;-0,0176;1,0063;0,0359;-0,0017;0,0380;-0,0018;0,0000;-0,0006;12,6000;-36,9000;-44,5200;198,1453;1,1780;-0,0778;74,0010;40,48085333;-4,07185833;0,13743083;
1,815404;0,0015;-0,0176;1,0063;0,0277;0,0292;0,0571;-0,0018;0,0000;-0,0006;12,6000;-36,9000;-44,5200;198,1453;1,1780;-0,0778;74,0010;40,48085333;-4,07185833;0,13743083;
1,817168;0,0015;-0,0176;1,0063;0,0277;0,0292;0,0571;-0,0018;-0,0018;-0,0012;12,6000;-36,9000;-44,5200;198,1453;1,1780;-0,0778;74,0010;40,48085333;-4,07185833;0,13743083;
1,818793;0,0015;-0,0176;1,0063;0,0277;0,0292;0,0571;-0,0018;-0,0018;-0,0012;12,4800;-36,2400;-44,5200;198,1453;1,1780;-0,0778;74,0010;40,48085333;-4,07185833;0,13743083;
1,830732;0,0015;-0,0176;1,0063;0,0277;0,0292;0,0571;-0,0024;0,0006;-0,0006;12,4800;-36,2400;-44,5200;198,1453;1,1780;-0,0778;74,0010;40,48085333;-4,07185833;0,13743083;
1,857136;0,0015;-0,0176;1,0063;0,0277;0,0292;0,0571;-0,0018;0,0006;0,0000;12,4800;-36,2400;-44,5200;198,1453;1,1780;-0,0778;74,0010;40,48085333;-4,07185833;0,13743083;
1,870012;-0,0061;-0,0193;1,0039;0,0277;0,0292;0,0571;-0,0018;0,0006;0,0000;12,4800;-36,2400;-44,5200;198,1453;1,1780;-0,0778;74,0010;40,48089167;-4,07190667;2,35228062;
1,871232;-0,0061;-0,0193;1,0039;0,0277;0,0292;0,0571;-0,0018;0,0006;0,0000;12,4800;-36,2400;-44,5200;198,1705;1,1804;-0,0808;74,0010;40,48089167;-4,07190667;2,35228062;
1,872013;-0,0061;-0,0193;1,0039;-0,0460;0,0129;0,0332;-0,0018;0,0006;0,0000;12,4800;-36,2400;-44,5200;198,1705;1,1804;-0,0808;74,0010;40,48089167;-4,07190667;2,35228062;
1,872844;-0,0061;-0,0193;1,0039;-0,0460;0,0129;0,0332;-0,0018;0,0000;0,0000;12,4800;-36,2400;-44,5200;198,1705;1,1804;-0,0808;74,0010;40,48089167;-4,07190667;2,35228062;
1,873586;-0,0061;-0,0193;1,0039;-0,0460;0,0129;0,0332;-0,0018;0,0000;0,0000;12,1800;-36,4200;-44,8200;198,1705;1,1804;-0,0808;74,0010;40,48089167;-4,07190667;2,35228062;
1,889958;-0,0061;-0,0193;1,0039;-0,0460;0,0129;0,0332;-0,0012;-0,0006;-0,0006;12,1800;-36,4200;-44,8200;198,1705;1,1804;-0,0808;78,6466;40,48089167;-4,07190667;2,35228062;
1,910582;-0,0061;-0,0193;1,0039;-0,0460;0,0129;0,0332;-0,0024;-0,0006;-0,0006;12,1800;-36,4200;-44,8200;198,1705;1,1804;-0,0808;78,6466;40,48089167;-4,07190667;2,35228062;
1,932969;0,0000;-0,0156;1,0056;-0,0460;0,0129;0,0332;-0,0024;-0,0006;-0,0006;12,1800;-36,4200;-44,8200;198,1705;1,1804;-0,0808;78,6466;40,48089167;-4,07190667;2,35228062;
1,936426;0,0000;-0,0156;1,0056;-0,0460;0,0129;0,0332;-0,0024;-0,0006;-0,0006;12,1800;-36,4200;-44,8200;198,1646;1,1744;-0,0794;78,6466;40,48089167;-4,07190667;2,35228062;
1,939453;0,0000;-0,0156;1,0056;0,0136;0,0478;0,0500;-0,0024;-0,0006;-0,0006;12,1800;-36,4200;-44,8200;198,1646;1,1744;-0,0794;78,6466;40,48089167;-4,07190667;2,35228062;
1,941900;0,0000;-0,0156;1,0056;0,0136;0,0478;0,0500;-0,0024;-0,0006;-0,0006;12,1800;-36,4200;-44,8200;198,1646;1,1744;-0,0794;78,6466;40,48089167;-4,07190667;2,35228062;
1,943970;0,0000;-0,0156;1,0056;0,0136;0,0478;0,0500;-0,0024;-0,0006;-0,0006;12,6000;-36,3000;-44,4600;198,1646;1,1744;-0,0794;78,6466;40,48089167;-4,07190667;2,35228062;
1,951240;0,0000;-0,0156;1,0056;0,0136;0,0478;0,0500;-0,0018;-0,0006;-0,0012;12,6000;-36,3000;-44,4600;198,1646;1,1744;-0,0794;78,6466;40,48089167;-4,07190667;2,35228062;
1,970704;0,0000;-0,0156;1,0056;0,0136;0,0478;0,0500;-0,0006;-0,0018;-0,0012;12,6000;-36,3000;-44,4600;198,1646;1,1744;-0,0794;78,6466;40,48089167;-4,07190667;2,35228062;
1,991128;-0,0034;-0,0205;1,0043;0,0136;0,0478;0,0500;-0,0006;-0,0018;-0,0012;12,6000;-36,3000;-44,4600;198,1646;1,1744;-0,0794;78,6466;40,48089167;-4,07190667;2,35228062;
1,993485;-0,0034;-0,0205;1,0043;0,0136;0,0478;0,0500;-0,0006;-0,0018;-0,0012;12,6000;-36,3000;-44,4600;198,2102;1,1767;-0,0780;78,6466;40,48089167;-4,07190667;2,35228062;
1,996117;-0,0034;-0,0205;1,0043;-0,0202;0,0003;0,0380;-0,0006;-0,0018;-0,0012;12,6000;-36,3000;-44,4600;198,2102;1,1767;-0,0780;78,6466;40,48089167;-4,07190667;2,35228062;
1,998340;-0,0034;-0,0205;1,0043;-0,0202;0,0003;0,0380;0,0000;-0,0012;0,0000;12,6000;-36,3000;-44,4600;198,2102;1,1767;-0,0780;78,6466;40,48089167;-4,07190667;2,35228062;
2,000461;-0,0034;-0,0205;1,0043;-0,0202;0,0003;0,0380;0,0000;-0,0012;0,0000;13,1400;-36,1200;-45,0000;198,2102;1,1767;-0,0780;78,6466;40,48089167;-4,07190667;2,35228062;
2,010630;-0,0034;-0,0205;1,0043;-0,0202;0,0003;0,0380;-0,0012;0,0006;0,0000;13,1400;-36,1200;-45,0000;198,2102;1,1767;-0,0780;78,6466;40,48089167;-4,07190667;2,35228062;
2,030925;-0,0034;-0,0205;1,0043;-0,0202;0,0003;0,0380;-0,0012;0,0000;-0,0006;13,1400;-36,1200;-45,0000;198,2102;1,1767;-0,0780;78,6466;40,48089167;-4,07190667;2,35228062;
2,050912;0,0024;-0,0186;1,0056;-0,0202;0,0003;0,0380;-0,0012;0,0000;-0,0006;13,1400;-36,1200;-45,0000;198,2102;1,1767;-0,0780;78,6466;40,48089167;-4,07190667;2,35228062;
2,057816;0,0024;-0,0186;1,0056;-0,0202;0,0003;0,0380;-0,0012;0,0000;-0,0006;13,1400;-36,1200;-45,0000;198,5192;1,1754;-0,0741;78,6466;40,48089167;-4,07190667;2,35228062;
2,061446;0,0024;-0,0186;1,0056;0,0366;0,0192;0,0500;-0,0012;0,0000;-0,0006;13,1400;-36,1200;-45,0000;198,5192;1,1754;-0,0741;78,6466;40,48089167;-4,07190667;2,35228062;
2,064302;0,0024;-0,0186;1,0056;0,0366;0,0192;0,0500;-0,0012;0,0000;-0,0006;13,1400;-36,1200;-45,0000;198,5192;1,1754;-0,0741;78,6466;40,48089167;-4,07190667;2,35228062;
2,066769;0,0024;-0,0186;1,0056;0,0366;0,0192;0,0500;-0,0012;0,0000;-0,0006;13,0200;-36,0000;-45,0600;198,5192;1,1754;-0,0741;78,6466;40,48089167;-4,07190667;2,35228062;
2,073107;0,0024;-0,0186;1,0056;0,0366;0,0192;0,0500;-0,0012;0,0000;-0,0006;13,0200;-36,0000;-45,0600;198,5192;1,1754;-0,0741;78,6466;40,48089167;-4,07190667;2,35228062;
2,091432;0,0024;-0,0186;1,0056;0,0366;0,0192;0,0500;-0,0018;0,0000;-0,0006;13,0200;-36,0000;-45,0600;198,5192;1,1754;-0,0741;78,6466;40,48089167;-4,07190667;2,35228062;
2,111074;-0,0051;-0,0195;1,0061;0,0366;0,0192;0,0500;-0,0018;0,0000;-0,0006;13,0200;-36,0000;-45,0600;198,5192;1,1754;-0,0741;78,6466;40,48089167;-4,07190667;2,35228062;
2,113685;-0,0051;-0,0195;1,0061;0,0366;0,0192;0,0500;-0,0018;0,0000;-0,0006;13,0200;-36,0000;-45,0600;198,6579;1,1773;-0,0767;78,6466;40,48089167;-4,07190667;2,35228062;
2,116743;-0,0051;-0,0195;1,0061;-0,0372;0,0100;0,0548;-0,0018;0,0000;-0,0006;13,0200;-36,0000;-45,0600;198,6579;1,1773;-0,0767;78,6466;40,48089167;-4,07190667;2,35228062;
2,120545;-0,0051;-0,0195;1,0061;-0,0372;0,0100;0,0548;-0,0012;0,0000;0,0006;13,0200;-36,0000;-45,0600;198,6579;1,1773;-0,0767;78,6466;40,48089167;-4,07190667;2,35228062;
2,123530;-0,0051;-0,0195;1,0061;-0,0372;0,0100;0,0548;-0,0012;0,0000;0,0006;13,3800;-35,7600;-44,9400;198,6579;1,1773;-0,0767;78,6466;40,48089167;-4,07190667;2,35228062;
2,131118;-0,0051;-0,0195;1,0061;-0,0372;0,0100;0,0548;-0,0012;-0,0006;0,0000;13,3800;-35,7600;-44,9400;198,6579;1,1773;-0,0767;78,6466;40,48089167;-4,07190667;2,35228062;
2,151586;-0,0051;-0,0195;1,0061;-0,0372;0,0100;0,0548;-0,0018;0,0000;0,0000;13,3800;-35,7600;-44,9400;198,6579;1,1773;-0,0767;78,6466;40,48089167;-4,07190667;2,35228062;
2,171090;-0,0015;-0,0151;1,0009;-0,0372;0,0100;0,0548;-0,0018;0,0000;0,0000;13,3800;-35,7600;-44,9400;198,6579;1,1773;-0,0767;78,6466;40,48089167;-4,07190667;2,35228062;
2,174935;-0,0015;-0,0151;1,0009;-0,0372;0,0100;0,0548;-0,0018;0,0000;0,0000;13,3800;-35,7600;-44,9400;198,9966;1,1693;-0,0784;78,6466;40,48089167;-4,07190667;2,35228062;
2,178484;-0,0015;-0,0151;1,0009;-0,0009;0,0517;0,0044;-0,0018;0,0000;0,0000;13,3800;-35,7600;-44,9400;198,9966;1,1693;-0,0784;78,6466;40,48089167;-4,07190667;2,35228062;
2,181324;-0,0015;-0,0151;1,0009;-0,0009;0,0517;0,0044;-0,0018;0,0012;0,0000;13,3800;-35,7600;-44,9400;198,9966;1,1693;-0,0784;78,6466;40,48089167;-4,07190667;2,35228062;
2,183915;-0,0015;-0,0151;1,0009;-0,0009;0,0517;0,0044;-0,0018;0,0012;0,0000;13,2600;-36,0600;-45,1800;198,9966;1,1693;-0,0784;78,6466;40,48089167;-4,07190667;2,35228062;
2,191813;-0,0015;-0,0151;1,0009;-0,0009;0,0517;0,0044;-0,0018;-0,0006;-0,0006;13,2600;-36,0600;-45,1800;198,9966;1,1693;-0,0784;78,6466;40,48089167;-4,07190667;2,35228062;
2,210932;-0,0015;-0,0151;1,0009;-0,0009;0,0517;0,0044;-0,0018;-0,0018;0,0000;13,2600;-36,0600;-45,1800;198,9966;1,1693;-0,0784;92,1730;40,48089167;-4,07190667;2,35228062;
2,232596;-0,0029;-0,0195;1,0056;-0,0009;0,0517;0,0044;-0,0018;-0,0018;0,0000;13,2600;-36,0600;-45,1800;198,9966;1,1693;-0,0784;92,1730;40,48089167;-4,07190667;2,35228062;
2,233265;-0,0029;-0,0195;1,0056;-0,0009;0,0517;0,0044;-0,0018;-0,0018;0,0000;13,2600;-36,0600;-45,1800;199,0805;1,1702;-0,0799;92,1730;40,48089167;-4,07190667;2,35228062;
2,234164;-0,0029;-0,0195;1,0056;-0,0151;0,0087;0,0499;-0,0018;-0,0018;0,0000;13,2600;-36,0600;-45,1800;199,0805;1,1702;-0,0799;92,1730;40,48089167;-4,07190667;2,35228062;
2,235336;-0,0029;-0,0195;1,0056;-0,0151;0,0087;0,0499;-0,0012;-0,0006;-0,0006;13,2600;-36,0600;-45,1800;199,0805;1,1702;-0,0799;92,1730;40,48089167;-4,07190667;2,35228062;
2,235900;-0,0029;-0,0195;1,0056;-0,0151;0,0087;0,0499;-0,0012;-0,0006;-0,0006;12,7800;-36,0000;-44,8200;199,0805;1,1702;-0,0799;92,1730;40,48089167;-4,07190667;2,35228062;
2,251529;-0,0046;-0,0181;1,0070;-0,0151;0,0087;0,0499;-0,0012;-0,0006;-0,0006;12,7800;-36,0000;-44,8200;199,0805;1,1702;-0,0799;92,1730;40,48089167;-4,07190667;2,35228062;
2,254252;-0,0046;-0,0181;1,0070;-0,0151;0,0087;0,0499;-0,0012;-0,0006;-0,0006;12,7800;-36,0000;-44,8200;199,0803;1,1696;-0,0807;92,1730;40,48089167;-4,07190667;2,35228062;
2,254898;-0,0046;-0,0181;1,0070;-0,0317;0,0230;0,0643;-0,0012;-0,0006;-0,0006;12,7800;-36,0000;-44,8200;199,0803;1,1696;-0,0807;92,1730;40,48089167;-4,07190667;2,35228062;
2,255461;-0,0046;-0,0181;1,0070;-0,0317;0,0230;0,0643;-0,0024;0,0000;-0,0006;12,7800;-36,0000;-44,8200;199,0803;1,1696;-0,0807;92,1730;40,48089167;-4,07190667;2,35228062;
2,286263;0,0012;-0,0200;1,0041;-0,0317;0,0230;0,0643;-0,0024;0,0000;-0,0006;12,7800;-36,0000;-44,8200;199,0803;1,1696;-0,0807;92,1730;40,48089167;-4,07190667;2,35228062;
2,287923;0,0012;-0,0200;1,0041;-0,0317;0,0230;0,0643;-0,0024;0,0000;-0,0006;12,7800;-36,0000;-44,8200;199,0810;1,1710;-0,0806;92,1730;40,48089167;-4,07190667;2,35228062;
2,288748;0,0012;-0,0200;1,0041;0,0258;0,0041;0,0356;-0,0024;0,0000;-0,0006;12,7800;-36,0000;-44,8200;199,0810;1,1710;-0,0806;92,1730;40,48089167;-4,07190667;2,35228062;
2,289386;0,0012;-0,0200;1,0041;0,0258;0,0041;0,0356;-0,0024;0,0000;-0,0006;12,7800;-36,0000;-44,8200;199,0810;1,1710;-0,0806;92,1730;40,48089167;-4,07190667;2,35228062;
2,306674;-0,0010;-0,0186;1,0043;0,0258;0,0041;0,0356;-0,0024;0,0000;-0,0006;12,7800;-36,0000;-44,8200;199,0810;1,1710;-0,0806;92,1730;40,48089167;-4,07190667;2,35228062;
2,308475;-0,0010;-0,0186;1,0043;0,0258;0,0041;0,0356;-0,0024;0,0000;-0,0006;12,7800;-36,0000;-44,8200;199,0822;1,1714;-0,0802;92,1730;40,48089167;-4,07190667;2,35228062;
2,310367;-0,0010;-0,0186;1,0043;0,0041;0,0185;0,0380;-0,0024;0,0000;-0,0006;12,7800;-36,0000;-44,8200;199,0822;1,1714;-0,0802;92,1730;40,48089167;-4,07190667;2,35228062;
2,311973;-0,0010;-0,0186;1,0043;0,0041;0,0185;0,0380;-0,0024;0,0000;-0,0006;12,7800;-36,0000;-44,8200;199,0822;1,1714;-0,0802;92,1730;40,48089167;-4,07190667;2,35228062;
2,313385;-0,0010;-0,0186;1,0043;0,0041;0,0185;0,0380;-0,0024;0,0000;-0,0006;13,0800;-36,4200;-44,2800;199,0822;1,1714;-0,0802;92,1730;40,48089167;-4,07190667;2,35228062;
2,326495;-0,0022;-0,0164;1,0048;0,0041;0,0185;0,0380;-0,0024;0,0000;-0,0006;13,0800;-36,4200;-44,2800;199,0822;1,1714;-0,0802;92,1730;40,48089167;-4,07190667;2,35228062;
2,328095;-0,0022;-0,0164;1,0048;0,0041;0,0185;0,0380;-0,0024;0,0000;-0,0006;13,0800;-36,4200;-44,2800;199,0872;1,1653;-0,0805;92,1730;40,48089167;-4,07190667;2,35228062;
2,329785;-0,0022;-0,0164;1,0048;-0,0078;0,0390;0,0427;-0,0024;0,0000;-0,0006;13,0800;-36,4200;-44,2800;199,0872;1,1653;-0,0805;92,1730;40,48089167;-4,07190667;2,35228062;
2,332266;-0,0022;-0,0164;1,0048;-0,0078;0,0390;0,0427;-0,0024;0,0000;-0,0006;13,0800;-36,4200;-44,2800;199,0872;1,1653;-0,0805;92,1730;40,48089167;-4,07190667;2,35228062;
2,346778;-0,0029;-0,0191;1,0056;-0,0078;0,0390;0,0427;-0,0024;0,0000;-0,0006;13,0800;-36,4200;-44,2800;199,0872;1,1653;-0,0805;92,1730;40,48089167;-4,07190667;2,35228062;
2,348645;-0,0029;-0,0191;1,0056;-0,0078;0,0390;0,0427;-0,0024;0,0000;-0,0006;13,0800;-36,4200;-44,2800;199,0879;1,1614;-0,0821;92,1730;40,48089167;-4,07190667;2,35228062;
2,350457;-0,0029;-0,0191;1,0056;-0,0147;0,0120;0,0499;-0,0024;0,0000;-0,0006;13,0800;-36,4200;-44,2800;199,0879;1,1614;-0,0821;92,1730;40,48089167;-4,07190667;2,35228062;
2,352135;-0,0029;-0,0191;1,0056;-0,0147;0,0120;0,0499;-0,0024;0,0000;-0,0006;13,0800;-36,4200;-44,2800;199,0879;1,1614;-0,0821;92,1730;40,48089167;-4,07190667;2,35228062;
2,365943;-0,0042;-0,0200;1,0046;-0,0147;0,0120;0,0499;-0,0024;0,0000;-0,0006;13,0800;-36,4200;-44,2800;199,0879;1,1614;-0,0821;92,1730;40,48089167;-4,07190667;2,35228062;
2,367511;-0,0042;-0,0200;1,0046;-0,0147;0,0120;0,0499;-0,0024;0,0000;-0,0006;13,0800;-36,4200;-44,2800;199,0886;1,1599;-0,0851;92,1730;40,48089167;-4,07190667;2,35228062;
2,368847;-0,0042;-0,0200;1,0046;-0,0261;0,0022;0,0403;-0,0024;0,0000;-0,0006;13,0800;-36,4200;-44,2800;199,0886;1,1599;-0,0851;92,1730;40,48089167;-4,07190667;2,35228062;
2,370090;-0,0042;-0,0200;1,0046;-0,0261;0,0022;0,0403;-0,0012;-0,0006;-0,0006;13,0800;-36,4200;-44,2800;199,0886;1,1599;-0,0851;92,1730;40,48089167;-4,07190667;2,35228062;
2,371347;-0,0042;-0,0200;1,0046;-0,0261;0,0022;0,0403;-0,0012;-0,0006;-0,0006;12,7800;-36,6600;-43,9200;199,0886;1,1599;-0,0851;92,1730;40,48089167;-4,07190667;2,35228062;
2,386002;-0,0010;-0,0195;1,0048;-0,0261;0,0022;0,0403;-0,0012;-0,0006;-0,0006;12,7800;-36,6600;-43,9200;199,0886;1,1599;-0,0851;92,1730;40,48089167;-4,07190667;2,35228062;
2,387717;-0,0010;-0,0195;1,0048;-0,0261;0,0022;0,0403;-0,0012;-0,0006;-0,0006;12,7800;-36,6600;-43,9200;199,0605;1,1585;-0,0857;92,1730;40,48089167;-4,07190667;2,35228062;
2,389391;-0,0010;-0,0195;1,0048;0,0051;0,0067;0,0427;-0,0012;-0,0006;-0,0006;12,7800;-36,6600;-43,9200;199,0605;1,1585;-0,0857;92,1730;40,48089167;-4,07190667;2,35228062;
2,391051;-0,0010;-0,0195;1,0048;0,0051;0,0067;0,0427;-0,0018;-0,0012;-0,0006;12,7800;-36,6600;-43,9200;199,0605;1,1585;-0,0857;92,1730;40,48089167;-4,07190667;2,35228062;
2,406224;0,0015;-0,0181;1,0065;0,0051;0,0067;0,0427;-0,0018;-0,0012;-0,0006;12,7800;-36,6600;-43,9200;199,0605;1,1585;-0,0857;92,1730;40,48089167;-4,07190667;2,35228062;
2,407797;0,0015;-0,0181;1,0065;0,0051;0,0067;0,0427;-0,0018;-0,0012;-0,0006;12,7800;-36,6600;-43,9200;199,0612;1,1603;-0,0842;92,1730;40,48089167;-4,07190667;2,35228062;
2,409437;0,0015;-0,0181;1,0065;0,0288;0,0214;0,0595;-0,0018;-0,0012;-0,0006;12,7800;-36,6600;-43,9200;199,0612;1,1603;-0,0842;92,1730;40,48089167;-4,07190667;2,35228062;
2,410944;0,0015;-0,0181;1,0065;0,0288;0,0214;0,0595;-0,0012;0,0006;-0,0006;12,7800;-36,6600;-43,9200;199,0612;1,1603;-0,0842;92,1730;40,48089167;-4,07190667;2,35228062;
2,426088;0,0034;-0,0166;1,0046;0,0288;0,0214;0,0595;-0,0012;0,0006;-0,0006;12,7800;-36,6600;-43,9200;199,0612;1,1603;-0,0842;92,1730;40,48089167;-4,07190667;2,35228062;
2,427780;0,0034;-0,0166;1,0046;0,0288;0,0214;0,0595;-0,0012;0,0006;-0,0006;12,7800;-36,6600;-43,9200;199,0619;1,1598;-0,0835;92,1730;40,48089167;-4,07190667;2,35228062;
2,429414;0,0034;-0,0166;1,0046;0,0478;0,0357;0,0403;-0,0012;0,0006;-0,0006;12,7800;-36,6600;-43,9200;199,0619;1,1598;-0,0835;92,1730;40,48089167;-4,07190667;2,35228062;
2,431178;0,0034;-0,0166;1,0046;0,0478;0,0357;0,0403;0,0000;0,0000;0,0000;12,7800;-36,6600;-43,9200;199,0619;1,1598;-0,0835;92,1730;40,48089167;-4,07190667;2,35228062;
2,432476;0,0034;-0,0166;1,0046;0,0478;0,0357;0,0403;0,0000;0,0000;0,0000;12,7800;-36,3000;-43,9800;199,0619;1,1598;-0,0835;92,1730;40,48089167;-4,07190667;2,35228062;
2,446733;-0,0037;-0,0161;1,0051;0,0478;0,0357;0,0403;0,0000;0,0000;0,0000;12,7800;-36,3000;-43,9800;199,0619;1,1598;-0,0835;92,1730;40,48089167;-4,07190667;2,35228062;
2,448536;-0,0037;-0,0161;1,0051;0,0478;0,0357;0,0403;0,0000;0,0000;0,0000;12,7800;-36,3000;-43,9800;199,0553;1,1575;-0,0830;92,1730;40,48089167;-4,07190667;2,35228062;
2,450326;-0,0037;-0,0161;1,0051;-0,0217;0,0401;0,0451;0,0000;0,0000;0,0000;12,7800;-36,3000;-43,9800;199,0553;1,1575;-0,0830;92,1730;40,48089167;-4,07190667;2,35228062;
2,451812;-0,0037;-0,0161;1,0051;-0,0217;0,0401;0,0451;-0,0018;0,0006;-0,0012;12,7800;-36,3000;-43,9800;199,0553;1,1575;-0,0830;92,1730;40,48089167;-4,07190667;2,35228062;
2,466531;-0,0066;-0,0203;1,0068;-0,0217;0,0401;0,0451;-0,0018;0,0006;-0,0012;12,7800;-36,3000;-43,9800;199,0553;1,1575;-0,0830;92,1730;40,48089167;-4,07190667;2,35228062;
2,468311;-0,0066;-0,0203;1,0068;-0,0217;0,0401;0,0451;-0,0018;0,0006;-0,0012;12,7800;-36,3000;-43,9800;199,0566;1,1581;-0,0844;92,1730;40,48089167;-4,07190667;2,35228062;
2,470038;-0,0066;-0,0203;1,0068;-0,0502;-0,0005;0,0619;-0,0018;0,0006;-0,0012;12,7800;-36,3000;-43,9800;199,0566;1,1581;-0,0844;92,1730;40,48089167;-4,07190667;2,35228062;
2,471784;-0,0066;-0,0203;1,0068;-0,0502;-0,0005;0,0619;-0,0024;-0,0012;-0,0012;12,7800;-36,3000;-43,9800;199,0566;1,1581;-0,0844;92,1730;40,48089167;-4,07190667;2,35228062;
2,485881;-0,0012;-0,0239;1,0046;-0,0502;-0,0005;0,0619;-0,0024;-0,0012;-0,0012;12,7800;-36,3000;-43,9800;199,0566;1,1581;-0,0844;93,8593;40,48089167;-4,07190667;2,35228062;
2,487587;-0,0012;-0,0239;1,0046;-0,0502;-0,0005;0,0619;-0,0024;-0,0012;-0,0012;12,7800;-36,3000;-43,9800;199,0581;1,1609;-0,0830;93,8593;40,48089167;-4,07190667;2,35228062;
2,489061;-0,0012;-0,0239;1,0046;0,0022;-0,0359;0,0403;-0,0024;-0,0012;-0,0012;12,7800;-36,3000;-43,9800;199,0581;1,1609;-0,0830;93,8593;40,48089167;-4,07190667;2,35228062;
2,490464;-0,0012;-0,0239;1,0046;0,0022;-0,0359;0,0403;-0,0037;-0,0024;0,0000;12,7800;-36,3000;-43,9800;199,0581;1,1609;-0,0830;93,8593;40,48089167;-4,07190667;2,35228062;
2,491662;-0,0012;-0,0239;1,0046;0,0022;-0,0359;0,0403;-0,0037;-0,0024;0,0000;12,4200;-36,1200;-44,4600;199,0581;1,1609;-0,0830;93,8593;40,48089167;-4,07190667;2,35228062;
2,505809;0,0015;-0,0181;1,0046;0,0022;-0,0359;0,0403;-0,0037;-0,0024;0,0000;12,4200;-36,1200;-44,4600;199,0581;1,1609;-0,0830;93,8593;40,48089167;-4,07190667;2,35228062;
2,507208;0,0015;-0,0181;1,0046;0,0022;-0,0359;0,0403;-0,0037;-0,0024;0,0000;12,4200;-36,1200;-44,4600;198,9867;1,1648;-0,0801;93,8593;40,48089167;-4,07190667;2,35228062;
2,508695;0,0015;-0,0181;1,0046;0,0281;0,0222;0,0403;-0,0037;-0,0024;0,0000;12,4200;-36,1200;-44,4600;198,9867;1,1648;-0,0801;93,8593;40,48089167;-4,07190667;2,35228062;
2,510138;0,0015;-0,0181;1,0046;0,0281;0,0222;0,0403;-0,0037;-0,0006;0,0000;12,4200;-36,1200;-44,4600;198,9867;1,1648;-0,0801;93,8593;40,48089167;-4,07190667;2,35228062;
2,526473;-0,0012;-0,0125;1,0068;0,0281;0,0222;0,0403;-0,0037;-0,0006;0,0000;12,4200;-36,1200;-44,4600;198,9867;1,1648;-0,0801;93,8593;40,48089167;-4,07190667;2,35228062;
2,528026;-0,0012;-0,0125;1,0068;0,0281;0,0222;0,0403;-0,0037;-0,0006;0,0000;12,4200;-36,1200;-44,4600;198,9867;1,1661;-0,0792;93,8593;40,48089167;-4,07190667;2,35228062;
2,530748;-0,0012;-0,0125;1,0068;0,0016;0,0775;0,0619;-0,0037;-0,0006;0,0000;12,4200;-36,1200;-44,4600;198,9867;1,1661;-0,0792;93,8593;40,48089167;-4,07190667;2,35228062;
2,533620;-0,0012;-0,0125;1,0068;0,0016;0,0775;0,0619;-0,0037;-0,0006;0,0000;12,4200;-36,1200;-44,4600;198,9867;1,1661;-0,0792;93,8593;40,48089167;-4,07190667;2,35228062;
2,546593;-0,0012;-0,0125;1,0068;0,0109;0,0535;0,0188;-0,0037;-0,0006;0,0000;12,4200;-36,1200;-44,4600;198,9867;1,1661;-0,0792;93,8593;40,48089167;-4,07190667;2,35228062;
2,548268;-0,0012;-0,0125;1,0068;0,0109;0,0535;0,0188;-0,0037;-0,0006;0,0000;12,4200;-36,1200;-44,4600;198,9867;1,1660;-0,0780;93,8593;40,48089167;-4,07190667;2,35228062;
2,549757;-0,0002;-0,0149;1,0024;0,0109;0,0535;0,0188;-0,0037;-0,0006;0,0000;12,4200;-36,1200;-44,4600;198,9867;1,1660;-0,0780;93,8593;40,48089167;-4,07190667;2,35228062;
2,551329;-0,0002;-0,0149;1,0024;0,0109;0,0535;0,0188;-0,0061;-0,0018;-0,0006;12,4200;-36,1200;-44,4600;198,9867;1,1660;-0,0780;93,8593;40,48089167;-4,07190667;2,35228062;
2,553020;-0,0002;-0,0149;1,0024;0,0109;0,0535;0,0188;-0,0061;-0,0018;-0,0006;12,4800;-35,8800;-44,5200;198,9867;1,1660;-0,0780;93,8593;40,48089167;-4,07190667;2,35228062;
2,567496;-0,0002;-0,0220;1,0043;0,0109;0,0535;0,0188;-0,0061;-0,0018;-0,0006;12,4800;-35,8800;-44,5200;198,9867;1,1660;-0,0780;93,8593;40,48089167;-4,07190667;2,35228062;
2,571244;-0,0002;-0,0220;1,0043;0,0109;0,0535;0,0188;-0,0061;-0,0018;-0,0006;12,4800;-35,8800;-44,5200;198,9657;1,1712;-0,0754;93,8593;40,48089167;-4,07190667;2,35228062;
2,573713;-0,0002;-0,0220;1,0043;0,0105;-0,0150;0,0380;-0,0061;-0,0018;-0,0006;12,4800;-35,8800;-44,5200;198,9657;1,1712;-0,0754;93,8593;40,48089167;-4,07190667;2,35228062;
2,575517;-0,0002;-0,0220;1,0043;0,0105;-0,0150;0,0380;-0,0024;-0,0012;-0,0006;12,4800;-35,8800;-44,5200;198,9657;1,1712;-0,0754;93,8593;40,48089167;-4,07190667;2,35228062;
2,586268;-0,0029;-0,0247;1,0063;0,0105;-0,0150;0,0380;-0,0024;-0,0012;-0,0006;12,4800;-35,8800;-44,5200;198,9657;1,1712;-0,0754;93,8593;40,48089167;-4,07190667;2,35228062;
2,589136;-0,0029;-0,0247;1,0063;0,0105;-0,0150;0,0380;-0,0024;-0,0012;-0,0006;12,4800;-35,8800;-44,5200;198,9664;1,1740;-0,0740;93,8593;40,48089167;-4,07190667;2,35228062;
2,590896;-0,0029;-0,0247;1,0063;-0,0161;-0,0409;0,0571;-0,0024;-0,0012;-0,0006;12,4800;-35,8800;-44,5200;198,9664;1,1740;-0,0740;93,8593;40,48089167;-4,07190667;2,35228062;
2,592448;-0,0029;-0,0247;1,0063;-0,0161;-0,0409;0,0571;0,0000;-0,0006;0,0000;12,4800;-35,8800;-44,5200;198,9664;1,1740;-0,0740;93,8593;40,48089167;-4,07190667;2,35228062;
2,606835;-0,0081;-0,0208;1,0053;-0,0161;-0,0409;0,0571;0,0000;-0,0006;0,0000;12,4800;-35,8800;-44,5200;198,9664;1,1740;-0,0740;93,8593;40,48089167;-4,07190667;2,35228062;
2,608638;-0,0081;-0,0208;1,0053;-0,0161;-0,0409;0,0571;0,0000;-0,0006;0,0000;12,4800;-35,8800;-44,5200;198,9664;1,1738;-0,0743;93,8593;40,48089167;-4,07190667;2,35228062;
2,610336;-0,0081;-0,0208;1,0053;-0,0663;-0,0026;0,0476;0,0000;-0,0006;0,0000;12,4800;-35,8800;-44,5200;198,9664;1,1738;-0,0743;93,8593;40,48089167;-4,07190667;2,35228062;
2,611926;-0,0081;-0,0208;1,0053;-0,0663;-0,0026;0,0476;0,0012;-0,0006;0,0000;12,4800;-35,8800;-44,5200;198,9664;1,1738;-0,0743;93,8593;40,48089167;-4,07190667;2,35228062;
2,613212;-0,0081;-0,0208;1,0053;-0,0663;-0,0026;0,0476;0,0012;-0,0006;0,0000;12,1800;-36,4200;-44,4600;198,9664;1,1738;-0,0743;93,8593;40,48089167;-4,07190667;2,35228062;
2,626460;-0,0005;-0,0166;1,0031;-0,0663;-0,0026;0,0476;0,0012;-0,0006;0,0000;12,1800;-36,4200;-44,4600;198,9664;1,1738;-0,0743;93,8593;40,48089167;-4,07190667;2,35228062;
2,628217;-0,0005;-0,0166;1,0031;-0,0663;-0,0026;0,0476;0,0012;-0,0006;0,0000;12,1800;-36,4200;-44,4600;198,7773;1,1717;-0,0742;93,8593;40,48089167;-4,07190667;2,35228062;
2,629922;-0,0005;-0,0166;1,0031;0,0079;0,0377;0,0260;0,0012;-0,0006;0,0000;12,1800;-36,4200;-44,4600;198,7773;1,1717;-0,0742;93,8593;40,48089167;-4,07190667;2,35228062;
2,631454;-0,0005;-0,0166;1,0031;0,0079;0,0377;0,0260;0,0000;-0,0037;-0,0012;12,1800;-36,4200;-44,4600;198,7773;1,1717;-0,0742;93,8593;40,48089167;-4,07190667;2,35228062;
2,647231;-0,0005;-0,0166;1,0031;0,0311;0,0446;0,0523;0,0000;-0,0037;-0,0012;12,1800;-36,4200;-44,4600;198,7773;1,1717;-0,0742;93,8593;40,48089167;-4,07190667;2,35228062;
2,649197;-0,0005;-0,0166;1,0031;0,0311;0,0446;0,0523;0,0000;-0,0037;-0,0012;12,1800;-36,4200;-44,4600;198,7786;1,1702;-0,0700;93,8593;40,48089167;-4,07190667;2,35228062;
2,650907;0,0020;-0,0159;1,0058;0,0311;0,0446;0,0523;0,0000;-0,0037;-0,0012;12,1800;-36,4200;-44,4600;198,7786;1,1702;-0,0700;93,8593;40,48089167;-4,07190667;2,35228062;
2,652698;0,0020;-0,0159;1,0058;0,0311;0,0446;0,0523;0,0000;-0,0012;-0,0006;12,1800;-36,4200;-44,4600;198,7786;1,1702;-0,0700;93,8593;40,48089167;-4,07190667;2,35228062;
2,666389;0,0044;-0,0176;1,0034;0,0311;0,0446;0,0523;0,0000;-0,0012;-0,0006;12,1800;-36,4200;-44,4600;198,7786;1,1702;-0,0700;93,8593;40,48089167;-4,07190667;2,35228062;
2,668176;0,0044;-0,0176;1,0034;0,0311;0,0446;0,0523;0,0000;-0,0012;-0,0006;12,1800;-36,4200;-44,4600;198,7794;1,1681;-0,0673;93,8593;40,48089167;-4,07190667;2,35228062;
2,670121;0,0044;-0,0176;1,0034;0,0546;0,0275;0,0284;0,0000;-0,0012;-0,0006;12,1800;-36,4200;-44,4600;198,7794;1,1681;-0,0673;93,8593;40,48089167;-4,07190667;2,35228062;
2,671764;0,0044;-0,0176;1,0034;0,0546;0,0275;0,0284;-0,0018;0,0006;-0,0012;12,1800;-36,4200;-44,4600;198,7794;1,1681;-0,0673;93,8593;40,48089167;-4,07190667;2,35228062;
2,673136;0,0044;-0,0176;1,0034;0,0546;0,0275;0,0284;-0,0018;0,0006;-0,0012;12,4200;-36,0600;-44,4600;198,7794;1,1681;-0,0673;93,8593;40,48089167;-4,07190667;2,35228062;
2,686380;-0,0051;-0,0225;1,0063;0,0546;0,0275;0,0284;-0,0018;0,0006;-0,0012;12,4200;-36,0600;-44,4600;198,7794;1,1681;-0,0673;93,8593;40,48089167;-4,07190667;2,35228062;
2,688225;-0,0051;-0,0225;1,0063;0,0546;0,0275;0,0284;-0,0018;0,0006;-0,0012;12,4200;-36,0600;-44,4600;198,7651;1,1697;-0,0679;93,8593;40,48089167;-4,07190667;2,35228062;
2,691122;-0,0051;-0,0225;1,0063;-0,0387;-0,0201;0,0571;-0,0018;0,0006;-0,0012;12,4200;-36,0600;-44,4600;198,7651;1,1697;-0,0679;93,8593;40,48089167;-4,07190667;2,35228062;
2,692688;-0,0051;-0,0225;1,0063;-0,0387;-0,0201;0,0571;0,0012;-0,0018;-0,0012;12,4200;-36,0600;-44,4600;198,7651;1,1697;-0,0679;93,8593;40,48089167;-4,07190667;2,35228062;
2,706521;-0,0098;-0,0225;1,0021;-0,0387;-0,0201;0,0571;0,0012;-0,0018;-0,0012;12,4200;-36,0600;-44,4600;198,7651;1,1697;-0,0679;93,8593;40,48089167;-4,07190667;2,35228062;
2,708277;-0,0098;-0,0225;1,0021;-0,0387;-0,0201;0,0571;0,0012;-0,0018;-0,0012;12,4200;-36,0600;-44,4600;198,7664;1,1681;-0,0676;93,8593;40,48089167;-4,07190667;2,35228062;
2,710022;-0,0098;-0,0225;1,0021;-0,0842;-0,0203;0,0164;0,0012;-0,0018;-0,0012;12,4200;-36,0600;-44,4600;198,7664;1,1681;-0,0676;93,8593;40,48089167;-4,07190667;2,35228062;
2,711586;-0,0098;-0,0225;1,0021;-0,0842;-0,0203;0,0164;0,0000;0,0000;-0,0024;12,4200;-36,0600;-44,4600;198,7664;1,1681;-0,0676;93,8593;40,48089167;-4,07190667;2,35228062;
2,726169;0,0044;-0,0235;1,0031;-0,0842;-0,0203;0,0164;0,0000;0,0000;-0,0024;12,4200;-36,0600;-44,4600;198,7664;1,1681;-0,0676;93,8593;40,48089167;-4,07190667;2,35228062;
2,727941;0,0044;-0,0235;1,0031;-0,0842;-0,0203;0,0164;0,0000;0,0000;-0,0024;12,4200;-36,0600;-44,4600;198,7692;1,1681;-0,0675;93,8593;40,48089167;-4,07190667;2,35228062;
2,729644;0,0044;-0,0235;1,0031;0,0546;-0,0299;0,0260;0,0000;0,0000;-0,0024;12,4200;-36,0600;-44,4600;198,7692;1,1681;-0,0675;93,8593;40,48089167;-4,07190667;2,35228062;
2,731128;0,0044;-0,0235;1,0031;0,0546;-0,0299;0,0260;-0,0006;-0,0140;-0,0018;12,4200;-36,0600;-44,4600;198,7692;1,1681;-0,0675;93,8593;40,48089167;-4,07190667;2,35228062;
2,732200;0,0044;-0,0235;1,0031;0,0546;-0,0299;0,0260;-0,0006;-0,0140;-0,0018;12,2400;-36,3000;-44,5800;198,7692;1,1681;-0,0675;93,8593;40,48089167;-4,07190667;2,35228062;
2,747953;0,0039;-0,0169;1,0053;0,0546;-0,0299;0,0260;-0,0006;-0,0140;-0,0018;12,2400;-36,3000;-44,5800;198,7692;1,1681;-0,0675;93,8593;40,48089167;-4,07190667;2,35228062;
2,749853;0,0039;-0,0169;1,0053;0,0546;-0,0299;0,0260;-0,0006;-0,0140;-0,0018;12,2400;-36,3000;-44,5800;198,6954;1,1686;-0,0514;93,8593;40,48089167;-4,07190667;2,35228062;
2,751675;0,0039;-0,0169;1,0053;0,0471;0,0348;0,0475;-0,0006;-0,0140;-0,0018;12,2400;-36,3000;-44,5800;198,6954;1,1686;-0,0514;93,8593;40,48089167;-4,07190667;2,35228062;
2,753322;0,0039;-0,0169;1,0053;0,0471;0,0348;0,0475;-0,0067;0,0024;0,0006;12,2400;-36,3000;-44,5800;198,6954;1,1686;-0,0514;93,8593;40,48089167;-4,07190667;2,35228062;
2,769002;0,0056;-0,0122;1,0112;0,0471;0,0348;0,0475;-0,0067;0,0024;0,0006;12,2400;-36,3000;-44,5800;198,6954;1,1686;-0,0514;93,8593;40,48089167;-4,07190667;2,35228062;
2,771161;0,0056;-0,0122;1,0112;0,0471;0,0348;0,0475;-0,0067;0,0024;0,0006;12,2400;-36,3000;-44,5800;198,6948;1,1731;-0,0513;93,8593;40,48089167;-4,07190667;2,35228062;
2,772819;0,0056;-0,0122;1,0112;0,0638;0,0811;0,1050;-0,0067;0,0024;0,0006;12,2400;-36,3000;-44,5800;198,6948;1,1731;-0,0513;93,8593;40,48089167;-4,07190667;2,35228062;
2,774604;0,0056;-0,0122;1,0112;0,0638;0,0811;0,1050;-0,0104;-0,0043;-0,0018;12,2400;-36,3000;-44,5800;198,6948;1,1731;-0,0513;93,8593;40,48089167;-4,07190667;2,35228062;
2,788906;0,0024;-0,0176;1,0048;0,0638;0,0811;0,1050;-0,0104;-0,0043;-0,0018;12,2400;-36,3000;-44,5800;198,6948;1,1731;-0,0513;93,8593;40,48089167;-4,07190667;2,35228062;
2,790693;0,0024;-0,0176;1,0048;0,0638;0,0811;0,1050;-0,0104;-0,0043;-0,0018;12,2400;-36,3000;-44,5800;198,6970;1,1812;-0,0430;93,8593;40,48089167;-4,07190667;2,35228062;
2,792382;0,0024;-0,0176;1,0048;0,0313;0,0298;0,0428;-0,0104;-0,0043;-0,0018;12,2400;-36,3000;-44,5800;198,6970;1,1812;-0,0430;93,8593;40,48089167;-4,07190667;2,35228062;
2,794040;0,0024;-0,0176;1,0048;0,0313;0,0298;0,0428;-0,0165;-0,0061;0,0006;12,2400;-36,3000;-44,5800;198,6970;1,1812;-0,0430;93,8593;40,48089167;-4,07190667;2,35228062;
2,795619;0,0024;-0,0176;1,0048;0,0313;0,0298;0,0428;-0,0165;-0,0061;0,0006;12,1800;-36,3000;-44,5800;198,6970;1,1812;-0,0430;93,8593;40,48089167;-4,07190667;2,35228062;
2,806768;-0,0086;-0,0222;1,0041;0,0313;0,0298;0,0428;-0,0165;-0,0061;0,0006;12,1800;-36,3000;-44,5800;198,6970;1,1812;-0,0430;93,5970;40,48089167;-4,07190667;2,35228062;
2,808868;-0,0086;-0,0222;1,0041;0,0313;0,0298;0,0428;-0,0165;-0,0061;0,0006;12,1800;-36,3000;-44,5800;198,6194;1,1988;-0,0363;93,5970;40,48089167;-4,07190667;2,35228062;
2,810743;-0,0086;-0,0222;1,0041;-0,0776;-0,0127;0,0357;-0,0165;-0,0061;0,0006;12,1800;-36,3000;-44,5800;198,6194;1,1988;-0,0363;93,5970;40,48089167;-4,07190667;2,35228062;
2,812490;-0,0086;-0,0222;1,0041;-0,0776;-0,0127;0,0357;-0,0092;-0,0055;0,0006;12,1800;-36,3000;-44,5800;198,6194;1,1988;-0,0363;93,5970;40,48089167;-4,07190667;2,35228062;
2,825982;-0,0142;-0,0225;1,0036;-0,0776;-0,0127;0,0357;-0,0092;-0,0055;0,0006;12,1800;-36,3000;-44,5800;198,6194;1,1988;-0,0363;93,5970;40,48089167;-4,07190667;2,35228062;
2,827594;-0,0142;-0,0225;1,0036;-0,0776;-0,0127;0,0357;-0,0092;-0,0055;0,0006;12,1800;-36,3000;-44,5800;198,6186;1,2075;-0,0355;93,5970;40,48089167;-4,07190667;2,35228062;
2,829293;-0,0142;-0,0225;1,0036;-0,1328;-0,0136;0,0309;-0,0092;-0,0055;0,0006;12,1800;-36,3000;-44,5800;198,6186;1,2075;-0,0355;93,5970;40,48089167;-4,07190667;2,35228062;
2,830930;-0,0142;-0,0225;1,0036;-0,1328;-0,0136;0,0309;0,0000;0,0024;0,0012;12,1800;-36,3000;-44,5800;198,6186;1,2075;-0,0355;93,5970;40,48089167;-4,07190667;2,35228062;
2,846460;-0,0044;-0,0208;1,0053;-0,1328;-0,0136;0,0309;0,0000;0,0024;0,0012;12,1800;-36,3000;-44,5800;198,6186;1,2075;-0,0355;93,5970;40,48089167;-4,07190667;2,35228062;
2,848238;-0,0044;-0,0208;1,0053;-0,1328;-0,0136;0,0309;0,0000;0,0024;0,0012;12,1800;-36,3000;-44,5800;198,6171;1,2063;-0,0432;93,5970;40,48089167;-4,07190667;2,35228062;
2,850069;-0,0044;-0,0208;1,0053;-0,0357;0,0029;0,0477;0,0000;0,0024;0,0012;12,1800;-36,3000;-44,5800;198,6171;1,2063;-0,0432;93,5970;40,48089167;-4,07190667;2,35228062;
2,851781;-0,0044;-0,0208;1,0053;-0,0357;0,0029;0,0477;-0,0049;-0,0006;0,0000;12,1800;-36,3000;-44,5800;198,6171;1,2063;-0,0432;93,5970;40,48089167;-4,07190667;2,35228062;
2,853165;-0,0044;-0,0208;1,0053;-0,0357;0,0029;0,0477;-0,0049;-0,0006;0,0000;13,0200;-35,6400;-44,5800;198,6171;1,2063;-0,0432;93,5970;40,48089167;-4,07190667;2,35228062;
2,865785;0,0068;-0,0193;1,0070;-0,0357;0,0029;0,0477;-0,0049;-0,0006;0,0000;13,0200;-35,6400;-44,5800;198,6171;1,2063;-0,0432;93,5970;40,48089167;-4,07190667;2,35228062;
2,867461;0,0068;-0,0193;1,0070;-0,0357;0,0029;0,0477;-0,0049;-0,0006;0,0000;13,0200;-35,6400;-44,5800;198,7909;1,2113;-0,0428;93,5970;40,48090833;-4,07189667;1,71299553;
2,869260;0,0068;-0,0193;1,0070;0,0744;0,0182;0,0644;-0,0049;-0,0006;0,0000;13,0200;-35,6400;-44,5800;198,7909;1,2113;-0,0428;93,5970;40,48090833;-4,07189667;1,71299553;
2,871814;0,0068;-0,0193;1,0070;0,0744;0,0182;0,0644;-0,0061;-0,0024;0,0000;13,0200;-35,6400;-44,5800;198,7909;1,2113;-0,0428;93,5970;40,48090833;-4,07189667;1,71299553;
2,886063;0,0076;-0,0161;1,0056;0,0744;0,0182;0,0644;-0,0061;-0,0024;0,0000;13,0200;-35,6400;-44,5800;198,7909;1,2113;-0,0428;93,5970;40,48090833;-4,07189667;1,71299553;
2,888381;0,0076;-0,0161;1,0056;0,0744;0,0182;0,0644;-0,0061;-0,0024;0,0000;13,0200;-35,6400;-44,5800;198,7909;1,2160;-0,0384;93,5970;40,48090833;-4,07189667;1,71299553;
2,890525;0,0076;-0,0161;1,0056;0,0808;0,0501;0,0501;-0,0061;-0,0024;0,0000;13,0200;-35,6400;-44,5800;198,7909;1,2160;-0,0384;93,5970;40,48090833;-4,07189667;1,71299553;
2,892605;0,0076;-0,0161;1,0056;0,0808;0,0501;0,0501;-0,0098;-0,0018;-0,0006;13,0200;-35,6400;-44,5800;198,7909;1,2160;-0,0384;93,5970;40,48090833;-4,07189667;1,71299553;
2,907163;0,0007;-0,0213;0,9953;0,0808;0,0501;0,0501;-0,0098;-0,0018;-0,0006;13,0200;-35,6400;-44,5800;198,7909;1,2160;-0,0384;93,5970;40,48090833;-4,07189667;1,71299553;
2,909133;0,0007;-0,0213;0,9953;0,0808;0,0501;0,0501;-0,0098;-0,0018;-0,0006;13,0200;-35,6400;-44,5800;198,7916;1,2257;-0,0350;93,5970;40,48090833;-4,07189667;1,71299553;
2,910700;0,0007;-0,0213;0,9953;0,0132;0,0015;-0,0504;-0,0098;-0,0018;-0,0006;13,0200;-35,6400;-44,5800;198,7916;1,2257;-0,0350;93,5970;40,48090833;-4,07189667;1,71299553;
2,912349;0,0007;-0,0213;0,9953;0,0132;0,0015;-0,0504;-0,0122;-0,0079;0,0043;13,0200;-35,6400;-44,5800;198,7916;1,2257;-0,0350;93,5970;40,48090833;-4,07189667;1,71299553;
2,914026;0,0007;-0,0213;0,9953;0,0132;0,0015;-0,0504;-0,0122;-0,0079;0,0043;13,1400;-35,8800;-44,5800;198,7916;1,2257;-0,0350;93,5970;40,48090833;-4,07189667;1,71299553;
2,926160;-0,0051;-0,0186;1,0092;0,0132;0,0015;-0,0504;-0,0122;-0,0079;0,0043;13,1400;-35,8800;-44,5800;198,7916;1,2257;-0,0350;93,5970;40,48090833;-4,07189667;1,71299553;
2,927922;-0,0051;-0,0186;1,0092;0,0132;0,0015;-0,0504;-0,0122;-0,0079;0,0043;13,1400;-35,8800;-44,5800;198,9205;1,2378;-0,0262;93,5970;40,48090833;-4,07189667;1,71299553;
2,929661;-0,0051;-0,0186;1,0092;-0,0458;0,0299;0,0861;-0,0122;-0,0079;0,0043;13,1400;-35,8800;-44,5800;198,9205;1,2378;-0,0262;93,5970;40,48090833;-4,07189667;1,71299553;
2,931267;-0,0051;-0,0186;1,0092;-0,0458;0,0299;0,0861;-0,0122;-0,0086;0,0006;13,1400;-35,8800;-44,5800;198,9205;1,2378;-0,0262;93,5970;40,48090833;-4,07189667;1,71299553;
2,946877;-0,0120;-0,0235;1,0043;-0,0458;0,0299;0,0861;-0,0122;-0,0086;0,0006;13,1400;-35,8800;-44,5800;198,9205;1,2378;-0,0262;93,5970;40,48090833;-4,07189667;1,71299553;
2,948742;-0,0120;-0,0235;1,0043;-0,0458;0,0299;0,0861;-0,0122;-0,0086;0,0006;13,1400;-35,8800;-44,5800;198,9197;1,2500;-0,0206;93,5970;40,48090833;-4,07189667;1,71299553;
2,950561;-0,0120;-0,0235;1,0043;-0,1138;-0,0159;0,0382;-0,0122;-0,0086;0,0006;13,1400;-35,8800;-44,5800;198,9197;1,2500;-0,0206;93,5970;40,48090833;-4,07189667;1,71299553;
2,952297;-0,0120;-0,0235;1,0043;-0,1138;-0,0159;0,0382;-0,0110;-0,0043;-0,0024;13,1400;-35,8800;-44,5800;198,9197;1,2500;-0,0206;93,5970;40,48090833;-4,07189667;1,71299553;
2,968393;-0,0020;-0,0235;0,9995;-0,1138;-0,0159;0,0382;-0,0110;-0,0043;-0,0024;13,1400;-35,8800;-44,5800;198,9197;1,2500;-0,0206;93,5970;40,48090833;-4,07189667;1,71299553;
2,970344;-0,0020;-0,0235;0,9995;-0,1138;-0,0159;0,0382;-0,0110;-0,0043;-0,0024;13,1400;-35,8800;-44,5800;198,9224;1,2617;-0,0186;93,5970;40,48090833;-4,07189667;1,71299553;
2,972060;-0,0020;-0,0235;0,9995;-0,0160;-0,0139;-0,0096;-0,0110;-0,0043;-0,0024;13,1400;-35,8800;-44,5800;198,9224;1,2617;-0,0186;93,5970;40,48090833;-4,07189667;1,71299553;
2,973878;-0,0020;-0,0235;0,9995;-0,0160;-0,0139;-0,0096;-0,0092;-0,0061;0,0006;13,1400;-35,8800;-44,5800;198,9224;1,2617;-0,0186;93,5970;40,48090833;-4,07189667;1,71299553;
2,975242;-0,0020;-0,0235;0,9995;-0,0160;-0,0139;-0,0096;-0,0092;-0,0061;0,0006;13,1400;-35,8800;-44,3400;198,9224;1,2617;-0,0186;93,5970;40,48090833;-4,07189667;1,71299553;
2,986341;0,0081;-0,0208;1,0080;-0,0160;-0,0139;-0,0096;-0,0092;-0,0061;0,0006;13,1400;-35,8800;-44,3400;198,9224;1,2617;-0,0186;93,5970;40,48090833;-4,07189667;1,71299553;
2,988279;0,0081;-0,0208;1,0080;-0,0160;-0,0139;-0,0096;-0,0092;-0,0061;0,0006;13,1400;-35,8800;-44,3400;199,0166;1,2718;-0,0117;93,5970;40,48090833;-4,07189667;1,71299553;
2,990041;0,0081;-0,0208;1,0080;0,0810;0,0142;0,0742;-0,0092;-0,0061;0,0006;13,1400;-35,8800;-44,3400;199,0166;1,2718;-0,0117;93,5970;40,48090833;-4,07189667;1,71299553;
2,991681;0,0081;-0,0208;1,0080;0,0810;0,0142;0,0742;-0,0067;-0,0006;-0,0012;13,1400;-35,8800;-44,3400;199,0166;1,2718;-0,0117;93,5970;40,48090833;-4,07189667;1,71299553;
3,006279;0,0076;-0,0154;1,0012;0,0810;0,0142;0,0742;-0,0067;-0,0006;-0,0012;13,1400;-35,8800;-44,3400;199,0166;1,2718;-0,0117;93,5970;40,48090833;-4,07189667;1,71299553;
3,008139;0,0076;-0,0154;1,0012;0,0810;0,0142;0,0742;-0,0067;-0,0006;-0,0012;13,1400;-35,8800;-44,3400;199,0180;1,2763;-0,0086;93,5970;40,48090833;-4,07189667;1,71299553;
3,009989;0,0076;-0,0154;1,0012;0,0757;0,0676;0,0072;-0,0067;-0,0006;-0,0012;13,1400;-35,8800;-44,3400;199,0180;1,2763;-0,0086;93,5970;40,48090833;-4,07189667;1,71299553;
3,011736;0,0076;-0,0154;1,0012;0,0757;0,0676;0,0072;-0,0079;-0,0024;-0,0006;13,1400;-35,8800;-44,3400;199,0180;1,2763;-0,0086;93,5970;40,48090833;-4,07189667;1,71299553;
3,026481;0,0010;-0,0193;1,0080;0,0757;0,0676;0,0072;-0,0079;-0,0024;-0,0006;13,1400;-35,8800;-44,3400;199,0180;1,2763;-0,0086;93,5970;40,48090833;-4,07189667;1,71299553;
3,028308;0,0010;-0,0193;1,0080;0,0757;0,0676;0,0072;-0,0079;-0,0024;-0,0006;13,1400;-35,8800;-44,3400;199,0188;1,2821;-0,0038;93,5970;40,48090833;-4,07189667;1,71299553;
3,030170;0,0010;-0,0193;1,0080;0,0102;0,0303;0,0743;-0,0079;-0,0024;-0,0006;13,1400;-35,8800;-44,3400;199,0188;1,2821;-0,0038;93,5970;40,48090833;-4,07189667;1,71299553;
3,031922;0,0010;-0,0193;1,0080;0,0102;0,0303;0,0743;-0,0116;-0,0024;0,0006;13,1400;-35,8800;-44,3400;199,0188;1,2821;-0,0038;93,5970;40,48090833;-4,07189667;1,71299553;
3,033405;0,0010;-0,0193;1,0080;0,0102;0,0303;0,0743;-0,0116;-0,0024;0,0006;12,9000;-36,4800;-44,4000;199,0188;1,2821;-0,0038;93,5970;40,48090833;-4,07189667;1,71299553;
3,046962;-0,0090;-0,0220;1,0092;0,0102;0,0303;0,0743;-0,0116;-0,0024;0,0006;12,9000;-36,4800;-44,4000;199,0188;1,2821;-0,0038;93,5970;40,48090833;-4,07189667;1,71299553;
3,048841;-0,0090;-0,0220;1,0092;0,0102;0,0303;0,0743;-0,0116;-0,0024;0,0006;12,9000;-36,4800;-44,4000;199,0179;1,2932;-0,0021;93,5970;40,48090833;-4,07189667;1,71299553;
3,050810;-0,0090;-0,0220;1,0092;-0,0882;0,0058;0,0863;-0,0116;-0,0024;0,0006;12,9000;-36,4800;-44,4000;199,0179;1,2932;-0,0021;93,5970;40,48090833;-4,07189667;1,71299553;
3,052708;-0,0090;-0,0220;1,0092;-0,0882;0,0058;0,0863;-0,0134;-0,0018;0,0006;12,9000;-36,4800;-44,4000;199,0179;1,2932;-0,0021;93,5970;40,48090833;-4,07189667;1,71299553;
3,069535;-0,0086;-0,0252;1,0056;-0,0882;0,0058;0,0863;-0,0134;-0,0018;0,0006;12,9000;-36,4800;-44,4000;199,0179;1,2932;-0,0021;93,5970;40,48090833;-4,07189667;1,71299553;
3,071342;-0,0086;-0,0252;1,0056;-0,0882;0,0058;0,0863;-0,0134;-0,0018;0,0006;12,9000;-36,4800;-44,4000;199,0171;1,3071;-0,0035;93,5970;40,48090833;-4,07189667;1,71299553;
3,073112;-0,0086;-0,0252;1,0056;-0,0832;-0,0229;0,0504;-0,0134;-0,0018;0,0006;12,9000;-36,4800;-44,4000;199,0171;1,3071;-0,0035;93,5970;40,48090833;-4,07189667;1,71299553;
3,074828;-0,0086;-0,0252;1,0056;-0,0832;-0,0229;0,0504;-0,0165;-0,0055;-0,0006;12,9000;-36,4800;-44,4000;199,0171;1,3071;-0,0035;93,5970;40,48090833;-4,07189667;1,71299553;
3,086358;0,0291;-0,0144;1,0112;-0,0832;-0,0229;0,0504;-0,0165;-0,0055;-0,0006;12,9000;-36,4800;-44,4000;199,0171;1,3071;-0,0035;93,4974;40,48090833;-4,07189667;1,71299553;
3,088372;0,0291;-0,0144;1,0112;-0,0832;-0,0229;0,0504;-0,0165;-0,0055;-0,0006;12,9000;-36,4800;-44,4000;199,0181;1,3183;0,0142;93,4974;40,48090833;-4,07189667;1,71299553;
3,090206;0,0291;-0,0144;1,0112;0,2825;0,0844;0,1055;-0,0165;-0,0055;-0,0006;12,9000;-36,4800;-44,4000;199,0181;1,3183;0,0142;93,4974;40,48090833;-4,07189667;1,71299553;
3,091913;0,0291;-0,0144;1,0112;0,2825;0,0844;0,1055;-0,0116;-0,0116;0,0049;12,9000;-36,4800;-44,4000;199,0181;1,3183;0,0142;93,4974;40,48090833;-4,07189667;1,71299553;
3,093292;0,0291;-0,0144;1,0112;0,2825;0,0844;0,1055;-0,0116;-0,0116;0,0049;13,2600;-36,4200;-44,5200;199,0181;1,3183;0,0142;93,4974;40,48090833;-4,07189667;1,71299553;
3,106261;-0,0078;-0,0286;1,0432;0,2825;0,0844;0,1055;-0,0116;-0,0116;0,0049;13,2600;-36,4200;-44,5200;199,0181;1,3183;0,0142;93,4974;40,48090833;-4,07189667;1,71299553;
3,108146;-0,0078;-0,0286;1,0432;0,2825;0,0844;0,1055;-0,0116;-0,0116;0,0049;13,2600;-36,4200;-44,5200;199,0659;1,3307;0,0282;93,4974;40,48090833;-4,07189667;1,71299553;
3,109938;-0,0078;-0,0286;1,0432;-0,0814;-0,0524;0,4192;-0,0116;-0,0116;0,0049;13,2600;-36,4200;-44,5200;199,0659;1,3307;0,0282;93,4974;40,48090833;-4,07189667;1,71299553;
3,111668;-0,0078;-0,0286;1,0432;-0,0814;-0,0524;0,4192;-0,0153;0,0159;-0,0006;13,2600;-36,4200;-44,5200;199,0659;1,3307;0,0282;93,4974;40,48090833;-4,07189667;1,71299553;
3,126234;-0,0144;-0,0107;0,9738;-0,0814;-0,0524;0,4192;-0,0153;0,0159;-0,0006;13,2600;-36,4200;-44,5200;199,0659;1,3307;0,0282;93,4974;40,48090833;-4,07189667;1,71299553;
3,128004;-0,0144;-0,0107;0,9738;-0,0814;-0,0524;0,4192;-0,0153;0,0159;-0,0006;13,2600;-36,4200;-44,5200;199,0666;1,3442;0,0076;93,4974;40,48090833;-4,07189667;1,71299553;
3,129619;-0,0144;-0,0107;0,9738;-0,1426;0,1247;-0,2607;-0,0153;0,0159;-0,0006;13,2600;-36,4200;-44,5200;199,0666;1,3442;0,0076;93,4974;40,48090833;-4,07189667;1,71299553;
3,131265;-0,0144;-0,0107;0,9738;-0,1426;0,1247;-0,2607;-0,0031;-0,0043;-0,0037;13,2600;-36,4200;-44,5200;199,0666;1,3442;0,0076;93,4974;40,48090833;-4,07189667;1,71299553;
3,147492;0,0049;-0,0161;1,0065;-0,1426;0,1247;-0,2607;-0,0031;-0,0043;-0,0037;13,2600;-36,4200;-44,5200;199,0666;1,3442;0,0076;93,4974;40,48090833;-4,07189667;1,71299553;
3,149219;0,0049;-0,0161;1,0065;-0,1426;0,1247;-0,2607;-0,0031;-0,0043;-0,0037;13,2600;-36,4200;-44,5200;199,0707;1,3382;0,0113;93,4974;40,48090833;-4,07189667;1,71299553;
3,151310;0,0049;-0,0161;1,0065;0,0459;0,0710;0,0601;-0,0031;-0,0043;-0,0037;13,2600;-36,4200;-44,5200;199,0707;1,3382;0,0113;93,4974;40,48090833;-4,07189667;1,71299553;
3,153746;0,0049;-0,0161;1,0065;0,0459;0,0710;0,0601;0,0037;-0,0098;-0,0006;13,2600;-36,4200;-44,5200;199,0707;1,3382;0,0113;93,4974;40,48090833;-4,07189667;1,71299553;
3,155220;0,0049;-0,0161;1,0065;0,0459;0,0710;0,0601;0,0037;-0,0098;-0,0006;13,3800;-36,6000;-44,5800;199,0707;1,3382;0,0113;93,4974;40,48090833;-4,07189667;1,71299553;
3,172522;-0,0217;-0,0362;1,0190;0,0459;0,0710;0,0601;0,0037;-0,0098;-0,0006;13,3800;-36,6000;-44,5800;199,0707;1,3382;0,0113;93,4974;40,48090833;-4,07189667;1,71299553;
3,174445;-0,0217;-0,0362;1,0190;0,0459;0,0710;0,0601;0,0037;-0,0098;-0,0006;13,3800;-36,6000;-44,5800;199,1268;1,3332;0,0089;93,4974;40,48090833;-4,07189667;1,71299553;
3,176249;-0,0217;-0,0362;1,0190;-0,2146;-0,1262;0,1822;0,0037;-0,0098;-0,0006;13,3800;-36,6000;-44,5800;199,1268;1,3332;0,0089;93,4974;40,48090833;-4,07189667;1,71299553;
3,178008;-0,0217;-0,0362;1,0190;-0,2146;-0,1262;0,1822;0,0061;-0,0037;-0,0018;13,3800;-36,6000;-44,5800;199,1268;1,3332;0,0089;93,4974;40,48090833;-4,07189667;1,71299553;
3,186282;-0,0032;-0,0232;0,9584;-0,2146;-0,1262;0,1822;0,0061;-0,0037;-0,0018;13,3800;-36,6000;-44,5800;199,1268;1,3332;0,0089;93,4974;40,48090833;-4,07189667;1,71299553;
3,188137;-0,0032;-0,0232;0,9584;-0,2146;-0,1262;0,1822;0,0061;-0,0037;-0,0018;13,3800;-36,6000;-44,5800;199,1286;1,3263;0,0032;93,4974;40,48090833;-4,07189667;1,71299553;
3,189977;-0,0032;-0,0232;0,9584;-0,0317;-0,0005;-0,4116;0,0061;-0,0037;-0,0018;13,3800;-36,6000;-44,5800;199,1286;1,3263;0,0032;93,4974;40,48090833;-4,07189667;1,71299553;
3,191546;-0,0032;-0,0232;0,9584;-0,0317;-0,0005;-0,4116;0,0147;-0,0140;-0,0018;13,3800;-36,6000;-44,5800;199,1286;1,3263;0,0032;93,4974;40,48090833;-4,07189667;1,71299553;
3,206249;0,0154;-0,0137;1,0161;-0,0317;-0,0005;-0,4116;0,0147;-0,0140;-0,0018;13,3800;-36,6000;-44,5800;199,1286;1,3263;0,0032;93,4974;40,48090833;-4,07189667;1,71299553;
3,208433;0,0154;-0,0137;1,0161;-0,0317;-0,0005;-0,4116;0,0147;-0,0140;-0,0018;13,3800;-36,6000;-44,5800;199,1307;1,3087;0,0193;93,4974;40,48090833;-4,07189667;1,71299553;
3,210368;0,0154;-0,0137;1,0161;0,1475;0,0899;0,1534;0,0147;-0,0140;-0,0018;13,3800;-36,6000;-44,5800;199,1307;1,3087;0,0193;93,4974;40,48090833;-4,07189667;1,71299553;
3,212106;0,0154;-0,0137;1,0161;0,1475;0,0899;0,1534;0,0061;0,0000;0,0006;13,3800;-36,6000;-44,5800;199,1307;1,3087;0,0193;93,4974;40,48090833;-4,07189667;1,71299553;
3,213506;0,0154;-0,0137;1,0161;0,1475;0,0899;0,1534;0,0061;0,0000;0,0006;13,3800;-36,4800;-44,6400;199,1307;1,3087;0,0193;93,4974;40,48090833;-4,07189667;1,71299553;
3,226363;0,0078;-0,0176;1,0109;0,1475;0,0899;0,1534;0,0061;0,0000;0,0006;13,3800;-36,4800;-44,6400;199,1307;1,3087;0,0193;93,4974;40,48090833;-4,07189667;1,71299553;
3,228345;0,0078;-0,0176;1,0109;0,1475;0,0899;0,1534;0,0061;0,0000;0,0006;13,3800;-36,4800;-44,6400;199,1871;1,2981;0,0216;93,4974;40,48090833;-4,07189667;1,71299553;
3,230196;0,0078;-0,0176;1,0109;0,0729;0,0498;0,1031;0,0061;0,0000;0,0006;13,3800;-36,4800;-44,6400;199,1871;1,2981;0,0216;93,4974;40,48090833;-4,07189667;1,71299553;
3,232146;0,0078;-0,0176;1,0109;0,0729;0,0498;0,1031;-0,0012;0,0043;-0,0018;13,3800;-36,4800;-44,6400;199,1871;1,2981;0,0216;93,4974;40,48090833;-4,07189667;1,71299553;
3,247072;0,0002;-0,0139;0,9997;0,0729;0,0498;0,1031;-0,0012;0,0043;-0,0018;13,3800;-36,4800;-44,6400;199,1871;1,2981;0,0216;93,4974;40,48090833;-4,07189667;1,71299553;
3,249072;0,0002;-0,0139;0,9997;0,0729;0,0498;0,1031;-0,0012;0,0043;-0,0018;13,3800;-36,4800;-44,6400;199,1893;1,2922;0,0190;93,4974;40,48090833;-4,07189667;1,71299553;
3,250947;0,0002;-0,0139;0,9997;-0,0009;0,0847;-0,0071;-0,0012;0,0043;-0,0018;13,3800;-36,4800;-44,6400;199,1893;1,2922;0,0190;93,4974;40,48090833;-4,07189667;1,71299553;
3,252764;0,0002;-0,0139;0,9997;-0,0009;0,0847;-0,0071;0,0006;-0,0037;0,0000;13,3800;-36,4800;-44,6400;199,1893;1,2922;0,0190;93,4974;40,48090833;-4,07189667;1,71299553;
3,269997;-0,0044;-0,0247;1,0043;-0,0009;0,0847;-0,0071;0,0006;-0,0037;0,0000;13,3800;-36,4800;-44,6400;199,1893;1,2922;0,0190;93,4974;40,48090833;-4,07189667;1,71299553;
3,271650;-0,0044;-0,0247;1,0043;-0,0009;0,0847;-0,0071;0,0006;-0,0037;0,0000;13,3800;-36,4800;-44,6400;199,1893;1,2893;0,0229;93,4974;40,48090833;-4,07189667;1,71299553;
3,273297;-0,0044;-0,0247;1,0043;-0,0470;-0,0212;0,0384;0,0006;-0,0037;0,0000;13,3800;-36,4800;-44,6400;199,1893;1,2893;0,0229;93,4974;40,48090833;-4,07189667;1,71299553;
3,275116;-0,0044;-0,0247;1,0043;-0,0470;-0,0212;0,0384;0,0012;-0,0006;0,0000;13,3800;-36,4800;-44,6400;199,1893;1,2893;0,0229;93,4974;40,48090833;-4,07189667;1,71299553;
3,276494;-0,0044;-0,0247;1,0043;-0,0470;-0,0212;0,0384;0,0012;-0,0006;0,0000;13,1400;-36,4200;-44,5200;199,1893;1,2893;0,0229;93,4974;40,48090833;-4,07189667;1,71299553;
3,286493;-0,0073;-0,0340;1,0041;-0,0470;-0,0212;0,0384;0,0012;-0,0006;0,0000;13,1400;-36,4200;-44,5200;199,1893;1,2893;0,0229;93,4974;40,48090833;-4,07189667;1,71299553;
3,288421;-0,0073;-0,0340;1,0041;-0,0470;-0,0212;0,0384;0,0012;-0,0006;0,0000;13,1400;-36,4200;-44,5200;199,1964;1,2890;0,0216;93,4974;40,48090833;-4,07189667;1,71299553;
3,290173;-0,0073;-0,0340;1,0041;-0,0755;-0,1122;0,0360;0,0012;-0,0006;0,0000;13,1400;-36,4200;-44,5200;199,1964;1,2890;0,0216;93,4974;40,48090833;-4,07189667;1,71299553;
3,291866;-0,0073;-0,0340;1,0041;-0,0755;-0,1122;0,0360;0,0000;0,0006;0,0000;13,1400;-36,4200;-44,5200;199,1964;1,2890;0,0216;93,4974;40,48090833;-4,07189667;1,71299553;
3,306415;-0,0056;-0,0249;1,0056;-0,0755;-0,1122;0,0360;0,0000;0,0006;0,0000;13,1400;-36,4200;-44,5200;199,1964;1,2890;0,0216;93,4974;40,48090833;-4,07189667;1,71299553;
3,308209;-0,0056;-0,0249;1,0056;-0,0755;-0,1122;0,0360;0,0000;0,0006;0,0000;13,1400;-36,4200;-44,5200;199,1963;1,2907;0,0171;93,4974;40,48090833;-4,07189667;1,71299553;
3,310038;-0,0056;-0,0249;1,0056;-0,0580;-0,0233;0,0504;0,0000;0,0006;0,0000;13,1400;-36,4200;-44,5200;199,1963;1,2907;0,0171;93,4974;40,48090833;-4,07189667;1,71299553;
3,311781;-0,0056;-0,0249;1,0056;-0,0580;-0,0233;0,0504;0,0006;-0,0018;-0,0012;13,1400;-36,4200;-44,5200;199,1963;1,2907;0,0171;93,4974;40,48090833;-4,07189667;1,71299553;
3,326491;0,0054;-0,0193;1,0070;-0,0580;-0,0233;0,0504;0,0006;-0,0018;-0,0012;13,1400;-36,4200;-44,5200;199,1963;1,2907;0,0171;93,4974;40,48090833;-4,07189667;1,71299553;
3,328290;0,0054;-0,0193;1,0070;-0,0580;-0,0233;0,0504;0,0006;-0,0018;-0,0012;13,1400;-36,4200;-44,5200;199,1977;1,2900;0,0190;93,4974;40,48090833;-4,07189667;1,71299553;
3,330011;0,0054;-0,0193;1,0070;0,0494;0,0316;0,0647;0,0006;-0,0018;-0,0012;13,1400;-36,4200;-44,5200;199,1977;1,2900;0,0190;93,4974;40,48090833;-4,07189667;1,71299553;
3,331731;0,0054;-0,0193;1,0070;0,0494;0,0316;0,0647;0,0012;0,0006;0,0000;13,1400;-36,4200;-44,5200;199,1977;1,2900;0,0190;93,4974;40,48090833;-4,07189667;1,71299553;
3,333126;0,0054;-0,0193;1,0070;0,0494;0,0316;0,0647;0,0012;0,0006;0,0000;12,7800;-36,3000;-44,8200;199,1977;1,2900;0,0190;93,4974;40,48090833;-4,07189667;1,71299553;
3,346985;0,0024;-0,0071;1,0036;0,0494;0,0316;0,0647;0,0012;0,0006;0,0000;12,7800;-36,3000;-44,8200;199,1977;1,2900;0,0190;93,4974;40,48090833;-4,07189667;1,71299553;
3,348715;0,0024;-0,0071;1,0036;0,0494;0,0316;0,0647;0,0012;0,0006;0,0000;12,7800;-36,3000;-44,8200;199,1837;1,2833;0,0181;93,4974;40,48090833;-4,07189667;1,71299553;
3,350404;0,0024;-0,0071;1,0036;0,0208;0,1502;0,0312;0,0012;0,0006;0,0000;12,7800;-36,3000;-44,8200;199,1837;1,2833;0,0181;93,4974;40,48090833;-4,07189667;1,71299553;
3,351993;0,0024;-0,0071;1,0036;0,0208;0,1502;0,0312;0,0012;0,0006;-0,0006;12,7800;-36,3000;-44,8200;199,1837;1,2833;0,0181;93,4974;40,48090833;-4,07189667;1,71299553;
3,366151;0,0020;-0,0183;1,0051;0,0208;0,1502;0,0312;0,0012;0,0006;-0,0006;12,7800;-36,3000;-44,8200;199,1837;1,2833;0,0181;93,4974;40,48090833;-4,07189667;1,71299553;
3,368206;0,0020;-0,0183;1,0051;0,0208;0,1502;0,0312;0,0012;0,0006;-0,0006;12,7800;-36,3000;-44,8200;199,1844;1,2768;0,0179;93,4974;40,48090833;-4,07189667;1,71299553;
3,369901;0,0020;-0,0183;1,0051;0,0161;0,0389;0,0455;0,0012;0,0006;-0,0006;12,7800;-36,3000;-44,8200;199,1844;1,2768;0,0179;93,4974;40,48090833;-4,07189667;1,71299553;
3,371959;0,0020;-0,0183;1,0051;0,0161;0,0389;0,0455;0,0049;0,0018;-0,0012;12,7800;-36,3000;-44,8200;199,1844;1,2768;0,0179;93,4974;40,48090833;-4,07189667;1,71299553;
3,387705;-0,0034;-0,0281;1,0090;0,0161;0,0389;0,0455;0,0049;0,0018;-0,0012;12,7800;-36,3000;-44,8200;199,1844;1,2768;0,0179;89,4571;40,48090833;-4,07189667;1,71299553;
3,391857;-0,0034;-0,0281;1,0090;0,0161;0,0389;0,0455;0,0049;0,0018;-0,0012;12,7800;-36,3000;-44,8200;199,1858;1,2707;0,0155;89,4571;40,48090833;-4,07189667;1,71299553;
3,393455;-0,0034;-0,0281;1,0090;-0,0362;-0,0579;0,0838;0,0049;0,0018;-0,0012;12,7800;-36,3000;-44,8200;199,1858;1,2707;0,0155;89,4571;40,48090833;-4,07189667;1,71299553;
3,394882;-0,0034;-0,0281;1,0090;-0,0362;-0,0579;0,0838;0,0067;0,0061;0,0006;12,7800;-36,3000;-44,8200;199,1858;1,2707;0,0155;89,4571;40,48090833;-4,07189667;1,71299553;
3,396035;-0,0034;-0,0281;1,0090;-0,0362;-0,0579;0,0838;0,0067;0,0061;0,0006;12,8400;-36,0000;-44,8200;199,1858;1,2707;0,0155;89,4571;40,48090833;-4,07189667;1,71299553;
3,406399;-0,0059;-0,0286;1,0041;-0,0362;-0,0579;0,0838;0,0067;0,0061;0,0006;12,8400;-36,0000;-44,8200;199,1858;1,2707;0,0155;89,4571;40,48090833;-4,07189667;1,71299553;
3,408217;-0,0059;-0,0286;1,0041;-0,0362;-0,0579;0,0838;0,0067;0,0061;0,0006;12,8400;-36,0000;-44,8200;199,1849;1,2637;0,0070;89,4571;40,48090833;-4,07189667;1,71299553;
3,410115;-0,0059;-0,0286;1,0041;-0,0587;-0,0638;0,0359;0,0067;0,0061;0,0006;12,8400;-36,0000;-44,8200;199,1849;1,2637;0,0070;89,4571;40,48090833;-4,07189667;1,71299553;
3,411912;-0,0059;-0,0286;1,0041;-0,0587;-0,0638;0,0359;0,0049;0,0024;0,0000;12,8400;-36,0000;-44,8200;199,1849;1,2637;0,0070;89,4571;40,48090833;-4,07189667;1,71299553;
3,426394;-0,0027;-0,0257;1,0102;-0,0587;-0,0638;0,0359;0,0049;0,0024;0,0000;12,8400;-36,0000;-44,8200;199,1849;1,2637;0,0070;89,4571;40,48090833;-4,07189667;1,71299553;
3,428526;-0,0027;-0,0257;1,0102;-0,0587;-0,0638;0,0359;0,0049;0,0024;0,0000;12,8400;-36,0000;-44,8200;199,1848;1,2596;0,0023;89,4571;40,48090833;-4,07189667;1,71299553;
3,430299;-0,0027;-0,0257;1,0102;-0,0267;-0,0358;0,0957;0,0049;0,0024;0,0000;12,8400;-36,0000;-44,8200;199,1848;1,2596;0,0023;89,4571;40,48090833;-4,07189667;1,71299553;
3,431975;-0,0027;-0,0257;1,0102;-0,0267;-0,0358;0,0957;0,0031;0,0000;-0,0018;12,8400;-36,0000;-44,8200;199,1848;1,2596;0,0023;89,4571;40,48090833;-4,07189667;1,71299553;
3,446846;-0,0027;-0,0257;1,0102;-0,0169;0,0641;0,0526;0,0031;0,0000;-0,0018;12,8400;-36,0000;-44,8200;199,1848;1,2596;0,0023;89,4571;40,48090833;-4,07189667;1,71299553;
3,449137;-0,0027;-0,0257;1,0102;-0,0169;0,0641;0,0526;0,0031;0,0000;-0,0018;12,8400;-36,0000;-44,8200;199,1869;1,2558;0,0011;89,4571;40,48090833;-4,07189667;1,71299553;
3,450905;-0,0017;-0,0154;1,0058;-0,0169;0,0641;0,0526;0,0031;0,0000;-0,0018;12,8400;-36,0000;-44,8200;199,1869;1,2558;0,0011;89,4571;40,48090833;-4,07189667;1,71299553;
3,452400;-0,0017;-0,0154;1,0058;-0,0169;0,0641;0,0526;0,0006;0,0006;0,0000;12,8400;-36,0000;-44,8200;199,1869;1,2558;0,0011;89,4571;40,48090833;-4,07189667;1,71299553;
3,453875;-0,0017;-0,0154;1,0058;-0,0169;0,0641;0,0526;0,0006;0,0006;0,0000;12,6000;-36,1200;-44,5800;199,1869;1,2558;0,0011;89,4571;40,48090833;-4,07189667;1,71299553;
3,468253;0,0066;-0,0129;1,0061;-0,0169;0,0641;0,0526;0,0006;0,0006;0,0000;12,6000;-36,1200;-44,5800;199,1869;1,2558;0,0011;89,4571;40,48090833;-4,07189667;1,71299553;
3,470342;0,0066;-0,0129;1,0061;-0,0169;0,0641;0,0526;0,0006;0,0006;0,0000;12,6000;-36,1200;-44,5800;199,1513;1,2526;0,0007;89,4571;40,48090833;-4,07189667;1,71299553;
3,472068;0,0066;-0,0129;1,0061;0,0645;0,0875;0,0550;0,0006;0,0006;0,0000;12,6000;-36,1200;-44,5800;199,1513;1,2526;0,0007;89,4571;40,48090833;-4,07189667;1,71299553;
3,473757;0,0066;-0,0129;1,0061;0,0645;0,0875;0,0550;-0,0024;-0,0012;0,0000;12,6000;-36,1200;-44,5800;199,1513;1,2526;0,0007;89,4571;40,48090833;-4,07189667;1,71299553;
3,486717;0,0034;-0,0149;1,0063;0,0645;0,0875;0,0550;-0,0024;-0,0012;0,0000;12,6000;-36,1200;-44,5800;199,1513;1,2526;0,0007;89,4571;40,48090833;-4,07189667;1,71299553;
3,488552;0,0034;-0,0149;1,0063;0,0645;0,0875;0,0550;-0,0024;-0,0012;0,0000;12,6000;-36,1200;-44,5800;199,1513;1,2501;0,0035;89,4571;40,48090833;-4,07189667;1,71299553;
3,490296;0,0034;-0,0149;1,0063;0,0329;0,0679;0,0574;-0,0024;-0,0012;0,0000;12,6000;-36,1200;-44,5800;199,1513;1,2501;0,0035;89,4571;40,48090833;-4,07189667;1,71299553;
3,492050;0,0034;-0,0149;1,0063;0,0329;0,0679;0,0574;-0,0049;0,0012;-0,0018;12,6000;-36,1200;-44,5800;199,1513;1,2501;0,0035;89,4571;40,48090833;-4,07189667;1,71299553;
3,506878;-0,0032;-0,0225;1,0051;0,0329;0,0679;0,0574;-0,0049;0,0012;-0,0018;12,6000;-36,1200;-44,5800;199,1513;1,2501;0,0035;89,4571;40,48090833;-4,07189667;1,71299553;
3,508849;-0,0032;-0,0225;1,0051;0,0329;0,0679;0,0574;-0,0049;0,0012;-0,0018;12,6000;-36,1200;-44,5800;199,1534;1,2532;0,0021;89,4571;40,48090833;-4,07189667;1,71299553;
3,510907;-0,0032;-0,0225;1,0051;-0,0315;-0,0058;0,0454;-0,0049;0,0012;-0,0018;12,6000;-36,1200;-44,5800;199,1534;1,2532;0,0021;89,4571;40,48090833;-4,07189667;1,71299553;
3,512618;-0,0032;-0,0225;1,0051;-0,0315;-0,0058;0,0454;-0,0024;0,0024;-0,0018;12,6000;-36,1200;-44,5800;199,1534;1,2532;0,0021;89,4571;40,48090833;-4,07189667;1,71299553;
3,514035;-0,0032;-0,0225;1,0051;-0,0315;-0,0058;0,0454;-0,0024;0,0024;-0,0018;12,4200;-36,5400;-44,4600;199,1534;1,2532;0,0021;89,4571;40,48090833;-4,07189667;1,71299553;
3,526504;-0,0083;-0,0227;1,0031;-0,0315;-0,0058;0,0454;-0,0024;0,0024;-0,0018;12,4200;-36,5400;-44,4600;199,1534;1,2532;0,0021;89,4571;40,48090833;-4,07189667;1,71299553;
3,528523;-0,0083;-0,0227;1,0031;-0,0315;-0,0058;0,0454;-0,0024;0,0024;-0,0018;12,4200;-36,5400;-44,4600;199,0162;1,2543;-0,0027;89,4571;40,48090833;-4,07189667;1,71299553;
3,530309;-0,0083;-0,0227;1,0031;-0,0809;-0,0080;0,0263;-0,0024;0,0024;-0,0018;12,4200;-36,5400;-44,4600;199,0162;1,2543;-0,0027;89,4571;40,48090833;-4,07189667;1,71299553;
3,531934;-0,0083;-0,0227;1,0031;-0,0809;-0,0080;0,0263;-0,0006;0,0000;-0,0055;12,4200;-36,5400;-44,4600;199,0162;1,2543;-0,0027;89,4571;40,48090833;-4,07189667;1,71299553;
3,547161;-0,0059;-0,0259;1,0070;-0,0809;-0,0080;0,0263;-0,0006;0,0000;-0,0055;12,4200;-36,5400;-44,4600;199,0162;1,2543;-0,0027;89,4571;40,48090833;-4,07189667;1,71299553;
3,549142;-0,0059;-0,0259;1,0070;-0,0809;-0,0080;0,0263;-0,0006;0,0000;-0,0055;12,4200;-36,5400;-44,4600;199,0224;1,2547;-0,0059;89,4571;40,48090833;-4,07189667;1,71299553;
3,550954;-0,0059;-0,0259;1,0070;-0,0565;-0,0390;0,0646;-0,0006;0,0000;-0,0055;12,4200;-36,5400;-44,4600;199,0224;1,2547;-0,0059;89,4571;40,48090833;-4,07189667;1,71299553;
3,552827;-0,0059;-0,0259;1,0070;-0,0565;-0,0390;0,0646;-0,0031;0,0024;-0,0018;12,4200;-36,5400;-44,4600;199,0224;1,2547;-0,0059;89,4571;40,48090833;-4,07189667;1,71299553;
3,568201;-0,0056;-0,0200;1,0073;-0,0565;-0,0390;0,0646;-0,0031;0,0024;-0,0018;12,4200;-36,5400;-44,4600;199,0224;1,2547;-0,0059;89,4571;40,48090833;-4,07189667;1,71299553;
3,570213;-0,0056;-0,0200;1,0073;-0,0565;-0,0390;0,0646;-0,0031;0,0024;-0,0018;12,4200;-36,5400;-44,4600;199,0245;1,2572;-0,0132;89,4571;40,48090833;-4,07189667;1,71299553;
3,571894;-0,0056;-0,0200;1,0073;-0,0528;0,0188;0,0670;-0,0031;0,0024;-0,0018;12,4200;-36,5400;-44,4600;199,0245;1,2572;-0,0132;89,4571;40,48090833;-4,07189667;1,71299553;
3,573458;-0,0056;-0,0200;1,0073;-0,0528;0,0188;0,0670;-0,0043;0,0037;-0,0006;12,4200;-36,5400;-44,4600;199,0245;1,2572;-0,0132;89,4571;40,48090833;-4,07189667;1,71299553;
3,574954;-0,0056;-0,0200;1,0073;-0,0528;0,0188;0,0670;-0,0043;0,0037;-0,0006;12,6000;-36,0600;-44,1000;199,0245;1,2572;-0,0132;89,4571;40,48090833;-4,07189667;1,71299553;
3,586708;0,0042;-0,0183;1,0107;-0,0528;0,0188;0,0670;-0,0043;0,0037;-0,0006;12,6000;-36,0600;-44,1000;199,0245;1,2572;-0,0132;89,4571;40,48090833;-4,07189667;1,71299553;
3,588889;0,0042;-0,0183;1,0107;-0,0528;0,0188;0,0670;-0,0043;0,0037;-0,0006;12,6000;-36,0600;-44,1000;199,0128;1,2610;-0,0183;89,4571;40,48090833;-4,07189667;1,71299553;
3,590725;0,0042;-0,0183;1,0107;0,0438;0,0362;0,1005;-0,0043;0,0037;-0,0006;12,6000;-36,0600;-44,1000;199,0128;1,2610;-0,0183;89,4571;40,48090833;-4,07189667;1,71299553;
3,592390;0,0042;-0,0183;1,0107;0,0438;0,0362;0,1005;-0,0061;-0,0024;0,0018;12,6000;-36,0600;-44,1000;199,0128;1,2610;-0,0183;89,4571;40,48090833;-4,07189667;1,71299553;
3,606642;0,0042;-0,0181;1,0083;0,0438;0,0362;0,1005;-0,0061;-0,0024;0,0018;12,6000;-36,0600;-44,1000;199,0128;1,2610;-0,0183;89,4571;40,48090833;-4,07189667;1,71299553;
3,608871;0,0042;-0,0181;1,0083;0,0438;0,0362;0,1005;-0,0061;-0,0024;0,0018;12,6000;-36,0600;-44,1000;199,0107;1,2660;-0,0154;89,4571;40,48090833;-4,07189667;1,71299553;
3,611363;0,0042;-0,0181;1,0083;0,0433;0,0395;0,0766;-0,0061;-0,0024;0,0018;12,6000;-36,0600;-44,1000;199,0107;1,2660;-0,0154;89,4571;40,48090833;-4,07189667;1,71299553;
3,615133;0,0042;-0,0181;1,0083;0,0433;0,0395;0,0766;-0,0073;-0,0031;0,0024;12,6000;-36,0600;-44,1000;199,0107;1,2660;-0,0154;89,4571;40,48090833;-4,07189667;1,71299553;
3,626805;0,0000;-0,0173;1,0078;0,0433;0,0395;0,0766;-0,0073;-0,0031;0,0024;12,6000;-36,0600;-44,1000;199,0107;1,2660;-0,0154;89,4571;40,48090833;-4,07189667;1,71299553;
3,629872;0,0000;-0,0173;1,0078;0,0433;0,0395;0,0766;-0,0073;-0,0031;0,0024;12,6000;-36,0600;-44,1000;199,0079;1,2712;-0,0119;89,4571;40,48090833;-4,07189667;1,71299553;
3,632374;0,0000;-0,0173;1,0078;0,0020;0,0476;0,0718;-0,0073;-0,0031;0,0024;12,6000;-36,0600;-44,1000;199,0079;1,2712;-0,0119;89,4571;40,48090833;-4,07189667;1,71299553;
3,634732;0,0000;-0,0173;1,0078;0,0020;0,0476;0,0718;-0,0140;-0,0116;0,0000;12,6000;-36,0600;-44,1000;199,0079;1,2712;-0,0119;89,4571;40,48090833;-4,07189667;1,71299553;
3,636829;0,0000;-0,0173;1,0078;0,0020;0,0476;0,0718;-0,0140;-0,0116;0,0000;12,9000;-36,5400;-44,0400;199,0079;1,2712;-0,0119;89,4571;40,48090833;-4,07189667;1,71299553;
3,647642;0,0000;-0,0173;1,0078;-0,0456;-0,0170;-0,0023;-0,0140;-0,0116;0,0000;12,9000;-36,5400;-44,0400;199,0079;1,2712;-0,0119;89,4571;40,48090833;-4,07189667;1,71299553;
3,650597;0,0000;-0,0173;1,0078;-0,0456;-0,0170;-0,0023;-0,0140;-0,0116;0,0000;12,9000;-36,5400;-44,0400;199,0076;1,2858;0,0004;89,4571;40,48090833;-4,07189667;1,71299553;
3,652880;-0,0046;-0,0242;1,0002;-0,0456;-0,0170;-0,0023;-0,0140;-0,0116;0,0000;12,9000;-36,5400;-44,0400;199,0076;1,2858;0,0004;89,4571;40,48090833;-4,07189667;1,71299553;
3,654307;-0,0046;-0,0242;1,0002;-0,0456;-0,0170;-0,0023;-0,0104;-0,0049;0,0006;12,9000;-36,5400;-44,0400;199,0076;1,2858;0,0004;89,4571;40,48090833;-4,07189667;1,71299553;
3,668030;-0,0059;-0,0247;1,0065;-0,0456;-0,0170;-0,0023;-0,0104;-0,0049;0,0006;12,9000;-36,5400;-44,0400;199,0076;1,2858;0,0004;89,4571;40,48090833;-4,07189667;1,71299553;
3,669992;-0,0059;-0,0247;1,0065;-0,0456;-0,0170;-0,0023;-0,0104;-0,0049;0,0006;12,9000;-36,5400;-44,0400;199,0069;1,2967;0,0037;89,4571;40,48090833;-4,07189667;1,71299553;
3,671746;-0,0059;-0,0247;1,0065;-0,0581;-0,0199;0,0600;-0,0104;-0,0049;0,0006;12,9000;-36,5400;-44,0400;199,0069;1,2967;0,0037;89,4571;40,48090833;-4,07189667;1,71299553;
3,673438;-0,0059;-0,0247;1,0065;-0,0581;-0,0199;0,0600;-0,0092;-0,0031;0,0012;12,9000;-36,5400;-44,0400;199,0069;1,2967;0,0037;89,4571;40,48090833;-4,07189667;1,71299553;
3,686865;-0,0020;-0,0225;1,0109;-0,0581;-0,0199;0,0600;-0,0092;-0,0031;0,0012;12,9000;-36,5400;-44,0400;199,0069;1,2967;0,0037;86,1112;40,48090833;-4,07189667;1,71299553;
3,688854;-0,0020;-0,0225;1,0109;-0,0581;-0,0199;0,0600;-0,0092;-0,0031;0,0012;12,9000;-36,5400;-44,0400;199,0054;1,3063;0,0050;86,1112;40,48090833;-4,07189667;1,71299553;
3,690678;-0,0020;-0,0225;1,0109;-0,0200;0,0033;0,1031;-0,0092;-0,0031;0,0012;12,9000;-36,5400;-44,0400;199,0054;1,3063;0,0050;86,1112;40,48090833;-4,07189667;1,71299553;
3,692234;-0,0020;-0,0225;1,0109;-0,0200;0,0033;0,1031;-0,0110;-0,0055;-0,0006;12,9000;-36,5400;-44,0400;199,0054;1,3063;0,0050;86,1112;40,48090833;-4,07189667;1,71299553;
3,693784;-0,0020;-0,0225;1,0109;-0,0200;0,0033;0,1031;-0,0110;-0,0055;-0,0006;12,9600;-36,0000;-44,4000;199,0054;1,3063;0,0050;86,1112;40,48090833;-4,07189667;1,71299553;
3,706679;0,0017;-0,0208;1,0148;-0,0200;0,0033;0,1031;-0,0110;-0,0055;-0,0006;12,9600;-36,0000;-44,4000;199,0054;1,3063;0,0050;86,1112;40,48090833;-4,07189667;1,71299553;
3,708914;0,0017;-0,0208;1,0148;-0,0200;0,0033;0,1031;-0,0110;-0,0055;-0,0006;12,9600;-36,0000;-44,4000;199,0246;1,3177;0,0103;86,1112;40,48090833;-4,07189667;1,71299553;
3,710670;0,0017;-0,0208;1,0148;0,0150;0,0220;0,1415;-0,0110;-0,0055;-0,0006;12,9600;-36,0000;-44,4000;199,0246;1,3177;0,0103;86,1112;40,48090833;-4,07189667;1,71299553;
3,712359;0,0017;-0,0208;1,0148;0,0150;0,0220;0,1415;-0,0153;-0,0049;0,0012;12,9600;-36,0000;-44,4000;199,0246;1,3177;0,0103;86,1112;40,48090833;-4,07189667;1,71299553;
3,726614;0,0066;-0,0200;0,9997;0,0150;0,0220;0,1415;-0,0153;-0,0049;0,0012;12,9600;-36,0000;-44,4000;199,0246;1,3177;0,0103;86,1112;40,48090833;-4,07189667;1,71299553;
3,728386;0,0066;-0,0200;0,9997;0,0150;0,0220;0,1415;-0,0153;-0,0049;0,0012;12,9600;-36,0000;-44,4000;199,0232;1,3335;0,0163;86,1112;40,48090833;-4,07189667;1,71299553;
3,730185;0,0066;-0,0200;0,9997;0,0618;0,0319;-0,0069;-0,0153;-0,0049;0,0012;12,9600;-36,0000;-44,4000;199,0232;1,3335;0,0163;86,1112;40,48090833;-4,07189667;1,71299553;
3,731922;0,0066;-0,0200;0,9997;0,0618;0,0319;-0,0069;-0,0134;-0,0098;0,0006;12,9600;-36,0000;-44,4000;199,0232;1,3335;0,0163;86,1112;40,48090833;-4,07189667;1,71299553;
3,747556;0,0066;-0,0200;0,9997;-0,0071;0,0341;0,0530;-0,0134;-0,0098;0,0006;12,9600;-36,0000;-44,4000;199,0232;1,3335;0,0163;86,1112;40,48090833;-4,07189667;1,71299553;
3,749801;0,0066;-0,0200;0,9997;-0,0071;0,0341;0,0530;-0,0134;-0,0098;0,0006;12,9600;-36,0000;-44,4000;199,0225;1,3463;0,0276;86,1112;40,48090833;-4,07189667;1,71299553;
3,751586;-0,0002;-0,0200;1,0058;-0,0071;0,0341;0,0530;-0,0134;-0,0098;0,0006;12,9600;-36,0000;-44,4000;199,0225;1,3463;0,0276;86,1112;40,48090833;-4,07189667;1,71299553;
3,752957;-0,0002;-0,0200;1,0058;-0,0071;0,0341;0,0530;-0,0147;-0,0079;0,0000;12,9600;-36,0000;-44,4000;199,0225;1,3463;0,0276;86,1112;40,48090833;-4,07189667;1,71299553;
3,754421;-0,0002;-0,0200;1,0058;-0,0071;0,0341;0,0530;-0,0147;-0,0079;0,0000;12,4200;-36,3600;-44,7600;199,0225;1,3463;0,0276;86,1112;40,48090833;-4,07189667;1,71299553;
3,767278;0,0022;-0,0252;0,9997;-0,0071;0,0341;0,0530;-0,0147;-0,0079;0,0000;12,4200;-36,3600;-44,7600;199,0225;1,3463;0,0276;86,1112;40,48090833;-4,07189667;1,71299553;
3,768973;0,0022;-0,0252;0,9997;-0,0071;0,0341;0,0530;-0,0147;-0,0079;0,0000;12,4200;-36,3600;-44,7600;198,9458;1,3619;0,0369;86,1112;40,48090833;-4,07189667;1,71299553;
3,770704;0,0022;-0,0252;0,9997;0,0152;-0,0135;-0,0068;-0,0147;-0,0079;0,0000;12,4200;-36,3600;-44,7600;198,9458;1,3619;0,0369;86,1112;40,48090833;-4,07189667;1,71299553;
3,772363;0,0022;-0,0252;0,9997;0,0152;-0,0135;-0,0068;-0,0165;-0,0073;-0,0006;12,4200;-36,3600;-44,7600;198,9458;1,3619;0,0369;86,1112;40,48090833;-4,07189667;1,71299553;
3,787975;0,0000;-0,0320;1,0087;0,0152;-0,0135;-0,0068;-0,0165;-0,0073;-0,0006;12,4200;-36,3600;-44,7600;198,9458;1,3619;0,0369;86,1112;40,48090833;-4,07189667;1,71299553;
3,790181;0,0000;-0,0320;1,0087;0,0152;-0,0135;-0,0068;-0,0165;-0,0073;-0,0006;12,4200;-36,3600;-44,7600;198,9465;1,3808;0,0454;86,1112;40,48090833;-4,07189667;1,71299553;
3,791928;0,0000;-0,0320;1,0087;-0,0078;-0,0773;0,0819;-0,0165;-0,0073;-0,0006;12,4200;-36,3600;-44,7600;198,9465;1,3808;0,0454;86,1112;40,48090833;-4,07189667;1,71299553;
3,793532;0,0000;-0,0320;1,0087;-0,0078;-0,0773;0,0819;-0,0128;-0,0092;-0,0006;12,4200;-36,3600;-44,7600;198,9465;1,3808;0,0454;86,1112;40,48090833;-4,07189667;1,71299553;
3,806258;-0,0100;-0,0498;1,0036;-0,0078;-0,0773;0,0819;-0,0128;-0,0092;-0,0006;12,4200;-36,3600;-44,7600;198,9465;1,3808;0,0454;86,1112;40,48090833;-4,07189667;1,71299553;
3,808489;-0,0100;-0,0498;1,0036;-0,0078;-0,0773;0,0819;-0,0128;-0,0092;-0,0006;12,4200;-36,3600;-44,7600;198,9470;1,4132;0,0480;86,1112;40,48090833;-4,07189667;1,71299553;
3,810257;-0,0100;-0,0498;1,0036;-0,1064;-0,2466;0,0317;-0,0128;-0,0092;-0,0006;12,4200;-36,3600;-44,7600;198,9470;1,4132;0,0480;86,1112;40,48090833;-4,07189667;1,71299553;
3,811953;-0,0100;-0,0498;1,0036;-0,1064;-0,2466;0,0317;-0,0122;-0,0104;0,0006;12,4200;-36,3600;-44,7600;198,9470;1,4132;0,0480;86,1112;40,48090833;-4,07189667;1,71299553;
3,813333;-0,0100;-0,0498;1,0036;-0,1064;-0,2466;0,0317;-0,0122;-0,0104;0,0006;12,1800;-36,1800;-44,7600;198,9470;1,4132;0,0480;86,1112;40,48090833;-4,07189667;1,71299553;
3,826512;-0,0332;-0,0897;1,0070;-0,1064;-0,2466;0,0317;-0,0122;-0,0104;0,0006;12,1800;-36,1800;-44,7600;198,9470;1,4132;0,0480;86,1112;40,48090833;-4,07189667;1,71299553;
3,828618;-0,0332;-0,0897;1,0070;-0,1064;-0,2466;0,0317;-0,0122;-0,0104;0,0006;12,1800;-36,1800;-44,7600;198,8189;1,6062;-0,0339;86,1112;40,48090833;-4,07189667;1,71299553;
3,830440;-0,0332;-0,0897;1,0070;-0,3198;-0,6038;0,0661;-0,0122;-0,0104;0,0006;12,1800;-36,1800;-44,7600;198,8189;1,6062;-0,0339;86,1112;40,48090833;-4,07189667;1,71299553;
3,832123;-0,0332;-0,0897;1,0070;-0,3198;-0,6038;0,0661;-0,0189;-0,0073;0,0098;12,1800;-36,1800;-44,7600;198,8189;1,6062;-0,0339;86,1112;40,48090833;-4,07189667;1,71299553;
3,847102;-0,0562;-0,0804;1,0136;-0,3198;-0,6038;0,0661;-0,0189;-0,0073;0,0098;12,1800;-36,1800;-44,7600;198,8189;1,6062;-0,0339;86,1112;40,48090833;-4,07189667;1,71299553;
3,850075;-0,0562;-0,0804;1,0136;-0,3198;-0,6038;0,0661;-0,0189;-0,0073;0,0098;12,1800;-36,1800;-44,7600;198,8002;1,9257;-0,2685;86,1112;40,48090833;-4,07189667;1,71299553;
3,851894;-0,0562;-0,0804;1,0136;-0,5047;-0,4582;0,1325;-0,0189;-0,0073;0,0098;12,1800;-36,1800;-44,7600;198,8002;1,9257;-0,2685;86,1112;40,48090833;-4,07189667;1,71299553;
3,853648;-0,0562;-0,0804;1,0136;-0,5047;-0,4582;0,1325;-0,0202;-0,0214;0,0489;12,1800;-36,1800;-44,7600;198,8002;1,9257;-0,2685;86,1112;40,48090833;-4,07189667;1,71299553;
3,868225;0,0264;0,0967;1,0224;-0,5047;-0,4582;0,1325;-0,0202;-0,0214;0,0489;12,1800;-36,1800;-44,7600;198,8002;1,9257;-0,2685;86,1112;40,48090833;-4,07189667;1,71299553;
3,870442;0,0264;0,0967;1,0224;-0,5047;-0,4582;0,1325;-0,0202;-0,0214;0,0489;12,1800;-36,1800;-44,7600;198,7435;1,8886;-0,2618;86,1112;40,48090833;-4,07189667;1,71299553;
3,872122;0,0264;0,0967;1,0224;0,3034;1,2713;0,2185;-0,0202;-0,0214;0,0489;12,1800;-36,1800;-44,7600;198,7435;1,8886;-0,2618;86,1112;40,48090833;-4,07189667;1,71299553;
3,873800;0,0264;0,0967;1,0224;0,3034;1,2713;0,2185;-0,0067;-0,0079;0,1002;12,1800;-36,1800;-44,7600;198,7435;1,8886;-0,2618;86,1112;40,48090833;-4,07189667;1,71299553;
3,875322;0,0264;0,0967;1,0224;0,3034;1,2713;0,2185;-0,0067;-0,0079;0,1002;11,8800;-36,0000;-44,9400;198,7435;1,8886;-0,2618;86,1112;40,48090833;-4,07189667;1,71299553;
3,886458;-0,0276;-0,0721;1,0080;0,3034;1,2713;0,2185;-0,0067;-0,0079;0,1002;11,8800;-36,0000;-44,9400;198,7435;1,8886;-0,2618;86,1112;40,48090833;-4,07189667;1,71299553;
3,888544;-0,0276;-0,0721;1,0080;0,3034;1,2713;0,2185;-0,0067;-0,0079;0,1002;11,8800;-36,0000;-44,9400;198,2810;1,8909;-0,2721;86,1112;40,48090833;-4,07189667;1,71299553;
3,890391;-0,0276;-0,0721;1,0080;-0,2240;-0,3827;0,0773;-0,0067;-0,0079;0,1002;11,8800;-36,0000;-44,9400;198,2810;1,8909;-0,2721;86,1112;40,48090833;-4,07189667;1,71299553;
3,892021;-0,0276;-0,0721;1,0080;-0,2240;-0,3827;0,0773;-0,0055;-0,0098;0,0513;11,8800;-36,0000;-44,9400;198,2810;1,8909;-0,2721;86,1112;40,48090833;-4,07189667;1,71299553;
3,906548;0,0110;0,0437;1,0085;-0,2240;-0,3827;0,0773;-0,0055;-0,0098;0,0513;11,8800;-36,0000;-44,9400;198,2810;1,8909;-0,2721;86,1112;40,48090833;-4,07189667;1,71299553;
3,908855;0,0110;0,0437;1,0085;-0,2240;-0,3827;0,0773;-0,0055;-0,0098;0,0513;11,8800;-36,0000;-44,9400;198,2220;1,8969;-0,2628;86,1112;40,48090833;-4,07189667;1,71299553;
3,910690;0,0110;0,0437;1,0085;0,1527;0,7532;0,0821;-0,0055;-0,0098;0,0513;11,8800;-36,0000;-44,9400;198,2220;1,8969;-0,2628;86,1112;40,48090833;-4,07189667;1,71299553;
3,912389;0,0110;0,0437;1,0085;0,1527;0,7532;0,0821;-0,0043;0,0672;0,1686;11,8800;-36,0000;-44,9400;198,2220;1,8969;-0,2628;86,1112;40,48090833;-4,07189667;1,71299553;
3,926409;-0,0107;-0,0928;1,0007;0,1527;0,7532;0,0821;-0,0043;0,0672;0,1686;11,8800;-36,0000;-44,9400;198,2220;1,8969;-0,2628;86,1112;40,48090833;-4,07189667;1,71299553;
3,928547;-0,0107;-0,0928;1,0007;0,1527;0,7532;0,0821;-0,0043;0,0672;0,1686;11,8800;-36,0000;-44,9400;198,0288;1,9008;-0,3462;86,1112;40,48090833;-4,07189667;1,71299553;
3,930329;-0,0107;-0,0928;1,0007;-0,0461;-0,5845;0,0056;-0,0043;0,0672;0,1686;11,8800;-36,0000;-44,9400;198,0288;1,9008;-0,3462;86,1112;40,48090833;-4,07189667;1,71299553;
3,931909;-0,0107;-0,0928;1,0007;-0,0461;-0,5845;0,0056;-0,0244;0,1069;0,3537;11,8800;-36,0000;-44,9400;198,0288;1,9008;-0,3462;86,1112;40,48090833;-4,07189667;1,71299553;
3,933648;-0,0107;-0,0928;1,0007;-0,0461;-0,5845;0,0056;-0,0244;0,1069;0,3537;12,1200;-36,1800;-44,9400;198,0288;1,9008;-0,3462;86,1112;40,48090833;-4,07189667;1,71299553;
3,947109;-0,0730;-0,1011;1,0229;-0,0461;-0,5845;0,0056;-0,0244;0,1069;0,3537;12,1200;-36,1800;-44,9400;198,0288;1,9008;-0,3462;86,1112;40,48090833;-4,07189667;1,71299553;
3,949616;-0,0730;-0,1011;1,0229;-0,0461;-0,5845;0,0056;-0,0244;0,1069;0,3537;12,1200;-36,1800;-44,9400;197,6031;1,9259;-0,4823;86,1112;40,48090833;-4,07189667;1,71299553;
3,951339;-0,0730;-0,1011;1,0229;-0,6334;-0,6616;0,2238;-0,0244;0,1069;0,3537;12,1200;-36,1800;-44,9400;197,6031;1,9259;-0,4823;86,1112;40,48090833;-4,07189667;1,71299553;
3,953123;-0,0730;-0,1011;1,0229;-0,6334;-0,6616;0,2238;-0,0495;0,2010;0,8888;12,1200;-36,1800;-44,9400;197,6031;1,9259;-0,4823;86,1112;40,48090833;-4,07189667;1,71299553;
3,968133;0,0020;-0,0975;0,9973;-0,6334;-0,6616;0,2238;-0,0495;0,2010;0,8888;12,1200;-36,1800;-44,9400;197,6031;1,9259;-0,4823;86,1112;40,48090833;-4,07189667;1,71299553;
3,970245;0,0020;-0,0975;0,9973;-0,6334;-0,6616;0,2238;-0,0495;0,2010;0,8888;12,1200;-36,1800;-44,9400;196,5838;1,9980;-0,7520;86,1112;40,48090833;-4,07189667;1,71299553;
3,971919;0,0020;-0,0975;0,9973;0,1478;-0,6134;-0,0267;-0,0495;0,2010;0,8888;12,1200;-36,1800;-44,9400;196,5838;1,9980;-0,7520;86,1112;40,48090833;-4,07189667;1,71299553;
3,973637;0,0020;-0,0975;0,9973;0,1478;-0,6134;-0,0267;-0,0519;0,2981;1,3262;12,1200;-36,1800;-44,9400;196,5838;1,9980;-0,7520;86,1112;40,48090833;-4,07189667;1,71299553;
3,986557;-0,0088;-0,0826;0,9997;0,1478;-0,6134;-0,0267;-0,0519;0,2981;1,3262;12,1200;-36,1800;-44,9400;196,5838;1,9980;-0,7520;96,3142;40,48090833;-4,07189667;1,71299553;
3,988787;-0,0088;-0,0826;0,9997;0,1478;-0,6134;-0,0267;-0,0519;0,2981;1,3262;12,1200;-36,1800;-44,9400;195,0636;2,0672;-1,1423;96,3142;40,48090833;-4,07189667;1,71299553;
3,990542;-0,0088;-0,0826;0,9997;0,1092;-0,4555;-0,0012;-0,0519;0,2981;1,3262;12,1200;-36,1800;-44,9400;195,0636;2,0672;-1,1423;96,3142;40,48090833;-4,07189667;1,71299553;
3,992149;-0,0088;-0,0826;0,9997;0,1092;-0,4555;-0,0012;-0,1252;0,2309;1,5650;12,1200;-36,1800;-44,9400;195,0636;2,0672;-1,1423;96,3142;40,48090833;-4,07189667;1,71299553;
3,993961;-0,0088;-0,0826;0,9997;0,1092;-0,4555;-0,0012;-0,1252;0,2309;1,5650;12,3000;-36,5400;-45,1800;195,0636;2,0672;-1,1423;96,3142;40,48090833;-4,07189667;1,71299553;
4,006887;0,1693;-0,0584;1,0114;0,1092;-0,4555;-0,0012;-0,1252;0,2309;1,5650;12,3000;-36,5400;-45,1800;195,0636;2,0672;-1,1423;96,3142;40,48090833;-4,07189667;1,71299553;
4,009323;0,1693;-0,0584;1,0114;0,1092;-0,4555;-0,0012;-0,1252;0,2309;1,5650;12,3000;-36,5400;-45,1800;195,0310;2,1698;-1,4736;96,3142;40,48090833;-4,07189667;1,71299553;
4,011100;0,1693;-0,0584;1,0114;1,9112;-0,2009;0,1156;-0,1252;0,2309;1,5650;12,3000;-36,5400;-45,1800;195,0310;2,1698;-1,4736;96,3142;40,48090833;-4,07189667;1,71299553;
4,012689;0,1693;-0,0584;1,0114;1,9112;-0,2009;0,1156;-0,0953;0,1894;1,3720;12,3000;-36,5400;-45,1800;195,0310;2,1698;-1,4736;96,3142;40,48090833;-4,07189667;1,71299553;
4,026438;0,0569;-0,0310;1,0412;1,9112;-0,2009;0,1156;-0,0953;0,1894;1,3720;12,3000;-36,5400;-45,1800;195,0310;2,1698;-1,4736;96,3142;40,48090833;-4,07189667;1,71299553;
4,028648;0,0569;-0,0310;1,0412;1,9112;-0,2009;0,1156;-0,0953;0,1894;1,3720;12,3000;-36,5400;-45,1800;193,4560;2,2347;-1,7511;96,3142;40,48090833;-4,07189667;1,71299553;
4,030397;0,0569;-0,0310;1,0412;0,8573;0,0783;0,4095;-0,0953;0,1894;1,3720;12,3000;-36,5400;-45,1800;193,4560;2,2347;-1,7511;96,3142;40,48090833;-4,07189667;1,71299553;
4,032076;0,0569;-0,0310;1,0412;0,8573;0,0783;0,4095;-0,0782;0,4294;0,9022;12,3000;-36,5400;-45,1800;193,4560;2,2347;-1,7511;96,3142;40,48090833;-4,07189667;1,71299553;
4,047111;0,0569;-0,0310;1,0412;-5,1090;2,9844;0,1497;-0,0782;0,4294;0,9022;12,3000;-36,5400;-45,1800;193,4560;2,2347;-1,7511;96,3142;40,48090833;-4,07189667;1,71299553;
4,049737;0,0569;-0,0310;1,0412;-5,1090;2,9844;0,1497;-0,0782;0,4294;0,9022;12,3000;-36,5400;-45,1800;192,4194;2,2879;-2,2838;96,3142;40,48090833;-4,07189667;1,71299553;
4,051474;-0,5612;0,2646;1,0144;-5,1090;2,9844;0,1497;-0,0782;0,4294;0,9022;12,3000;-36,5400;-45,1800;192,4194;2,2879;-2,2838;96,3142;40,48090833;-4,07189667;1,71299553;
4,053249;-0,5612;0,2646;1,0144;-5,1090;2,9844;0,1497;-0,0727;0,6426;0,8607;12,3000;-36,5400;-45,1800;192,4194;2,2879;-2,2838;96,3142;40,48090833;-4,07189667;1,71299553;
4,054983;-0,5612;0,2646;1,0144;-5,1090;2,9844;0,1497;-0,0727;0,6426;0,8607;11,4000;-36,6600;-45,4200;192,4194;2,2879;-2,2838;96,3142;40,48090833;-4,07189667;1,71299553;
4,068354;0,0046;-0,1786;1,0070;-5,1090;2,9844;0,1497;-0,0727;0,6426;0,8607;11,4000;-36,6600;-45,4200;192,4194;2,2879;-2,2838;96,3142;40,48090833;-4,07189667;1,71299553;
4,070457;0,0046;-0,1786;1,0070;-5,1090;2,9844;0,1497;-0,0727;0,6426;0,8607;11,4000;-36,6600;-45,4200;191,9886;2,3251;-3,0606;96,3142;40,48090833;-4,07189667;1,71299553;
4,072157;0,0046;-0,1786;1,0070;0,5687;-1,3523;0,0843;-0,0727;0,6426;0,8607;11,4000;-36,6600;-45,4200;191,9886;2,3251;-3,0606;96,3142;40,48090833;-4,07189667;1,71299553;
4,074462;0,0046;-0,1786;1,0070;0,5687;-1,3523;0,0843;-0,1387;0,5107;1,0550;11,4000;-36,6600;-45,4200;191,9886;2,3251;-3,0606;96,3142;40,48090833;-4,07189667;1,71299553;
4,086473;-0,0845;0,0283;1,0784;0,5687;-1,3523;0,0843;-0,1387;0,5107;1,0550;11,4000;-36,6600;-45,4200;191,9886;2,3251;-3,0606;96,3142;40,48090833;-4,07189667;1,71299553;
4,088742;-0,0845;0,0283;1,0784;0,5687;-1,3523;0,0843;-0,1387;0,5107;1,0550;11,4000;-36,6600;-45,4200;190,7720;2,4125;-3,6959;96,3142;40,48090833;-4,07189667;1,71299553;
4,090673;-0,0845;0,0283;1,0784;-0,1968;0,6905;0,7904;-0,1387;0,5107;1,0550;11,4000;-36,6600;-45,4200;190,7720;2,4125;-3,6959;96,3142;40,48090833;-4,07189667;1,71299553;
4,092500;-0,0845;0,0283;1,0784;-0,1968;0,6905;0,7904;-0,0892;1,0104;0,7043;11,4000;-36,6600;-45,4200;190,7720;2,4125;-3,6959;96,3142;40,48090833;-4,07189667;1,71299553;
4,106318;0,0044;0,0007;1,0166;-0,1968;0,6905;0,7904;-0,0892;1,0104;0,7043;11,4000;-36,6600;-45,4200;190,7720;2,4125;-3,6959;96,3142;40,48090833;-4,07189667;1,71299553;
4,108437;0,0044;0,0007;1,0166;-0,1968;0,6905;0,7904;-0,0892;1,0104;0,7043;11,4000;-36,6600;-45,4200;189,9594;2,4539;-4,8874;96,3142;40,48090833;-4,07189667;1,71299553;
4,110236;0,0044;0,0007;1,0166;0,8778;0,4271;0,2002;-0,0892;1,0104;0,7043;11,4000;-36,6600;-45,4200;189,9594;2,4539;-4,8874;96,3142;40,48090833;-4,07189667;1,71299553;
4,111963;0,0044;0,0007;1,0166;0,8778;0,4271;0,2002;-0,1240;1,1625;0,4881;11,4000;-36,6600;-45,4200;189,9594;2,4539;-4,8874;96,3142;40,48090833;-4,07189667;1,71299553;
4,113745;0,0044;0,0007;1,0166;0,8778;0,4271;0,2002;-0,1240;1,1625;0,4881;10,8000;-36,9600;-45,6600;189,9594;2,4539;-4,8874;96,3142;40,48090833;-4,07189667;1,71299553;
4,126936;-0,0618;0,0435;0,9626;0,8778;0,4271;0,2002;-0,1240;1,1625;0,4881;10,8000;-36,9600;-45,6600;189,9594;2,4539;-4,8874;96,3142;40,48090833;-4,07189667;1,71299553;
4,129148;-0,0618;0,0435;0,9626;0,8778;0,4271;0,2002;-0,1240;1,1625;0,4881;10,8000;-36,9600;-45,6600;189,1989;2,5412;-6,2457;96,3142;40,48090833;-4,07189667;1,71299553;
4,130970;-0,0618;0,0435;0,9626;0,4601;0,8610;-0,3057;-0,1240;1,1625;0,4881;10,8000;-36,9600;-45,6600;189,1989;2,5412;-6,2457;96,3142;40,48090833;-4,07189667;1,71299553;
4,132670;-0,0618;0,0435;0,9626;0,4601;0,8610;-0,3057;-0,0635;0,9817;0,2950;10,8000;-36,9600;-45,6600;189,1989;2,5412;-6,2457;96,3142;40,48090833;-4,07189667;1,71299553;
4,146921;-0,1480;0,0657;0,9838;0,4601;0,8610;-0,3057;-0,0635;0,9817;0,2950;10,8000;-36,9600;-45,6600;189,1989;2,5412;-6,2457;96,3142;40,48090833;-4,07189667;1,71299553;
4,149173;-0,1480;0,0657;0,9838;0,4601;0,8610;-0,3057;-0,0635;0,9817;0,2950;10,8000;-36,9600;-45,6600;188,8544;2,5733;-7,3853;96,3142;40,48090833;-4,07189667;1,71299553;
4,150957;-0,1480;0,0657;0,9838;-0,1916;1,0843;-0,0740;-0,0635;0,9817;0,2950;10,8000;-36,9600;-45,6600;188,8544;2,5733;-7,3853;96,3142;40,48090833;-4,07189667;1,71299553;
4,152696;-0,1480;0,0657;0,9838;-0,1916;1,0843;-0,0740;-0,0733;0,7062;0,1998;10,8000;-36,9600;-45,6600;188,8544;2,5733;-7,3853;96,3142;40,48090833;-4,07189667;1,71299553;
4,168572;-0,1031;-0,0086;0,9716;-0,1916;1,0843;-0,0740;-0,0733;0,7062;0,1998;10,8000;-36,9600;-45,6600;188,8544;2,5733;-7,3853;96,3142;40,48090833;-4,07189667;1,71299553;
4,170659;-0,1031;-0,0086;0,9716;-0,1916;1,0843;-0,0740;-0,0733;0,7062;0,1998;10,8000;-36,9600;-45,6600;188,6187;2,5608;-8,1481;96,3142;40,48090833;-4,07189667;1,71299553;
4,172382;-0,1031;-0,0086;0,9716;0,3782;0,3544;-0,1762;-0,0733;0,7062;0,1998;10,8000;-36,9600;-45,6600;188,6187;2,5608;-8,1481;96,3142;40,48090833;-4,07189667;1,71299553;
4,174148;-0,1031;-0,0086;0,9716;0,3782;0,3544;-0,1762;-0,0415;0,5168;0,0165;10,8000;-36,9600;-45,6600;188,6187;2,5608;-8,1481;96,3142;40,48090833;-4,07189667;1,71299553;
4,175847;-0,1031;-0,0086;0,9716;0,3782;0,3544;-0,1762;-0,0415;0,5168;0,0165;9,8400;-37,0200;-45,4200;188,6187;2,5608;-8,1481;96,3142;40,48090833;-4,07189667;1,71299553;
4,186565;-0,1854;-0,0711;0,9731;0,3782;0,3544;-0,1762;-0,0415;0,5168;0,0165;9,8400;-37,0200;-45,4200;188,6187;2,5608;-8,1481;96,3142;40,48090833;-4,07189667;1,71299553;
4,188854;-0,1854;-0,0711;0,9731;0,3782;0,3544;-0,1762;-0,0415;0,5168;0,0165;9,8400;-37,0200;-45,4200;184,6103;2,5674;-8,7051;96,3142;40,48090833;-4,07189667;1,71299553;
4,190702;-0,1854;-0,0711;0,9731;-0,3345;-0,2574;-0,1478;-0,0415;0,5168;0,0165;9,8400;-37,0200;-45,4200;184,6103;2,5674;-8,7051;96,3142;40,48090833;-4,07189667;1,71299553;
4,192422;-0,1854;-0,0711;0,9731;-0,3345;-0,2574;-0,1478;-0,0238;0,3134;0,0128;9,8400;-37,0200;-45,4200;184,6103;2,5674;-8,7051;96,3142;40,48090833;-4,07189667;1,71299553;
4,206666;-0,0899;-0,0232;0,9628;-0,3345;-0,2574;-0,1478;-0,0238;0,3134;0,0128;9,8400;-37,0200;-45,4200;184,6103;2,5674;-8,7051;96,3142;40,48090833;-4,07189667;1,71299553;
4,208889;-0,0899;-0,0232;0,9628;-0,3345;-0,2574;-0,1478;-0,0238;0,3134;0,0128;9,8400;-37,0200;-45,4200;184,5936;2,5614;-9,0193;96,3142;40,48090833;-4,07189667;1,71299553;
4,210754;-0,0899;-0,0232;0,9628;0,6548;0,2108;-0,2402;-0,0238;0,3134;0,0128;9,8400;-37,0200;-45,4200;184,5936;2,5614;-9,0193;96,3142;40,48090833;-4,07189667;1,71299553;
4,212400;-0,0899;-0,0232;0,9628;0,6548;0,2108;-0,2402;-0,0110;0,0874;-0,0501;9,8400;-37,0200;-45,4200;184,5936;2,5614;-9,0193;96,3142;40,48090833;-4,07189667;1,71299553;
4,226520;-0,1568;-0,0215;0,9518;0,6548;0,2108;-0,2402;-0,0110;0,0874;-0,0501;9,8400;-37,0200;-45,4200;184,5936;2,5614;-9,0193;96,3142;40,48090833;-4,07189667;1,71299553;
4,228777;-0,1568;-0,0215;0,9518;0,6548;0,2108;-0,2402;-0,0110;0,0874;-0,0501;9,8400;-37,0200;-45,4200;184,6498;2,5570;-9,0868;96,3142;40,48090833;-4,07189667;1,71299553;
4,230577;-0,1568;-0,0215;0,9518;0,0101;0,2268;-0,3461;-0,0110;0,0874;-0,0501;9,8400;-37,0200;-45,4200;184,6498;2,5570;-9,0868;96,3142;40,48090833;-4,07189667;1,71299553;
4,232241;-0,1568;-0,0215;0,9518;0,0101;0,2268;-0,3461;0,0147;-0,3097;-0,1564;9,8400;-37,0200;-45,4200;184,6498;2,5570;-9,0868;96,3142;40,48090833;-4,07189667;1,71299553;
4,233858;-0,1568;-0,0215;0,9518;0,0101;0,2268;-0,3461;0,0147;-0,3097;-0,1564;10,0200;-37,4400;-45,4800;184,6498;2,5570;-9,0868;96,3142;40,48090833;-4,07189667;1,71299553;
4,247018;-0,2187;-0,0269;0,9484;0,0101;0,2268;-0,3461;0,0147;-0,3097;-0,1564;10,0200;-37,4400;-45,4800;184,6498;2,5570;-9,0868;96,3142;40,48090833;-4,07189667;1,71299553;
4,249274;-0,2187;-0,0269;0,9484;0,0101;0,2268;-0,3461;0,0147;-0,3097;-0,1564;10,0200;-37,4400;-45,4800;184,7841;2,5519;-8,7242;96,3142;40,48090833;-4,07189667;1,71299553;
4,251088;-0,2187;-0,0269;0,9484;-0,6568;0,1733;-0,3893;0,0147;-0,3097;-0,1564;10,0200;-37,4400;-45,4800;184,7841;2,5519;-8,7242;96,3142;40,48090833;-4,07189667;1,71299553;
4,252877;-0,2187;-0,0269;0,9484;-0,6568;0,1733;-0,3893;0,0159;-0,7587;-0,1216;10,0200;-37,4400;-45,4800;184,7841;2,5519;-8,7242;96,3142;40,48090833;-4,07189667;1,71299553;
4,268200;-0,1019;-0,0027;0,7070;-0,6568;0,1733;-0,3893;0,0159;-0,7587;-0,1216;10,0200;-37,4400;-45,4800;184,7841;2,5519;-8,7242;96,3142;40,48090833;-4,07189667;1,71299553;
4,270378;-0,1019;-0,0027;0,7070;-0,6568;0,1733;-0,3893;0,0159;-0,7587;-0,1216;10,0200;-37,4400;-45,4800;184,9246;2,5539;-7,8490;96,3142;40,48090833;-4,07189667;1,71299553;
4,272143;-0,1019;-0,0027;0,7070;0,3395;0,4106;-2,7763;0,0159;-0,7587;-0,1216;10,0200;-37,4400;-45,4800;184,9246;2,5539;-7,8490;96,3142;40,48090833;-4,07189667;1,71299553;
4,273895;-0,1019;-0,0027;0,7070;0,3395;0,4106;-2,7763;0,1283;-2,2926;-0,2388;10,0200;-37,4400;-45,4800;184,9246;2,5539;-7,8490;96,3142;40,48090833;-4,07189667;1,71299553;
4,286273;-0,2038;-0,0181;0,8758;0,3395;0,4106;-2,7763;0,1283;-2,2926;-0,2388;10,0200;-37,4400;-45,4800;184,9246;2,5539;-7,8490;98,2564;40,48090833;-4,07189667;1,71299553;
4,288536;-0,2038;-0,0181;0,8758;0,3395;0,4106;-2,7763;0,1283;-2,2926;-0,2388;10,0200;-37,4400;-45,4800;185,2136;2,4389;-5,2075;98,2564;40,48090833;-4,07189667;1,71299553;
4,290326;-0,2038;-0,0181;0,8758;-1,1075;0,2401;-1,1741;0,1283;-2,2926;-0,2388;10,0200;-37,4400;-45,4800;185,2136;2,4389;-5,2075;98,2564;40,48090833;-4,07189667;1,71299553;
4,292084;-0,2038;-0,0181;0,8758;-1,1075;0,2401;-1,1741;0,3048;-5,4837;-0,3268;10,0200;-37,4400;-45,4800;185,2136;2,4389;-5,2075;98,2564;40,48090833;-4,07189667;1,71299553;
4,293882;-0,2038;-0,0181;0,8758;-1,1075;0,2401;-1,1741;0,3048;-5,4837;-0,3268;10,6200;-37,5000;-45,1800;185,2136;2,4389;-5,2075;98,2564;40,48090833;-4,07189667;1,71299553;
4,306051;0,3181;0,0679;1,5812;-1,1075;0,2401;-1,1741;0,3048;-5,4837;-0,3268;10,6200;-37,5000;-45,1800;185,2136;2,4389;-5,2075;98,2564;40,48090833;-4,07189667;1,71299553;
4,310491;0,3181;0,0679;1,5812;-1,1075;0,2401;-1,1741;0,3048;-5,4837;-0,3268;10,6200;-37,5000;-45,1800;196,3410;2,1040;1,0825;98,2564;40,48090833;-4,07189667;1,71299553;
4,313107;0,3181;0,0679;1,5812;2,9321;1,0256;5,6970;0,3048;-5,4837;-0,3268;10,6200;-37,5000;-45,1800;196,3410;2,1040;1,0825;98,2564;40,48090833;-4,07189667;1,71299553;
4,315943;0,3181;0,0679;1,5812;2,9321;1,0256;5,6970;-0,2175;1,6304;-0,0660;10,6200;-37,5000;-45,1800;196,3410;2,1040;1,0825;98,2564;40,48090833;-4,07189667;1,71299553;
4,326392;-0,4119;-0,1185;1,4663;2,9321;1,0256;5,6970;-0,2175;1,6304;-0,0660;10,6200;-37,5000;-45,1800;196,3410;2,1040;1,0825;98,2564;40,48090833;-4,07189667;1,71299553;
4,331558;-0,4119;-0,1185;1,4663;2,9321;1,0256;5,6970;-0,2175;1,6304;-0,0660;10,6200;-37,5000;-45,1800;196,4173;2,3528;-0,7817;98,2564;40,48090833;-4,07189667;1,71299553;
4,333052;-0,4119;-0,1185;1,4663;-3,9029;-0,7586;4,5725;-0,2175;1,6304;-0,0660;10,6200;-37,5000;-45,1800;196,4173;2,3528;-0,7817;98,2564;40,48090833;-4,07189667;1,71299553;
