loggingTime(txt),loggingSample(N),locationTimestamp_since1970(s),locationLatitude(WGS84),locationLongitude(WGS84),locationAltitude(m),locationSpeed(m/s),locationSpeedAccuracy(m/s),locationCourse(°),locationCourseAccuracy(°),locationVerticalAccuracy(m),locationHorizontalAccuracy(m),locationFloor(Z),locationHeadingTimestamp_since1970(s),locationHeadingX(µT),locationHeadingY(µT),locationHeadingZ(µT),locationTrueHeading(°),locationMagneticHeading(°),locationHeadingAccuracy(°),accelerometerTimestamp_sinceReboot(s),accelerometerAccelerationX(G),accelerometerAccelerationY(G),accelerometerAccelerationZ(G),gyroTimestamp_sinceReboot(s),gyroRotationX(rad/s),gyroRotationY(rad/s),gyroRotationZ(rad/s),magnetometerTimestamp_sinceReboot(s),magnetometerX(µT),magnetometerY(µT),magnetometerZ(µT),motionTimestamp_sinceReboot(s),motionYaw(rad),motionRoll(rad),motionPitch(rad),motionRotationRateX(rad/s),motionRotationRateY(rad/s),motionRotationRateZ(rad/s),motionUserAccelerationX(G),motionUserAccelerationY(G),motionUserAccelerationZ(G),motionAttitudeReferenceFrame(txt),motionQuaternionX(R),motionQuaternionY(R),motionQuaternionZ(R),motionQuaternionW(R),motionGravityX(G),motionGravityY(G),motionGravityZ(G),motionMagneticFieldX(µT),motionMagneticFieldY(µT),motionMagneticFieldZ(µT),motionHeading(°),motionMagneticFieldCalibrationAccuracy(Z),activityTimestamp_sinceReboot(s),activity(txt),activityActivityConfidence(Z),activityActivityStartDate(txt),pedometerStartDate(txt),pedometerNumberofSteps(N),pedometerAverageActivePace(s/m),pedometerCurrentPace(s/m),pedometerCurrentCadence(steps/s),pedometerDistance(m),pedometerFloorAscended(N),pedometerFloorDescended(N),pedometerEndDate(txt),altimeterTimestamp_sinceReboot(s),altimeterReset(bool),altimeterRelativeAltitude(m),altimeterPressure(kPa),IP_Timestamp_since1970(s),IP_en0(txt),IP_pdp_ip0(txt),deviceID(txt),deviceOrientationTimeStamp_since1970(s),deviceOrientation(Z),batteryTimeStamp_since1970(s),batteryState(R),batteryLevel(Z),label(N),normalizedLocationAltitude(m)
2024-07-07T20:02:32.071+02:00,41294,1720375352.000309,40.48039159605467,-4.071648507117906,771.8782,0.0,1.251929,-1.0,-1.0,3.369918050015154,4.740062169314966,-9999,1720375352.066872,-16.42972755432129,19.5650634765625,-37.44383239746094,45.54701614379883,45.23457336425781,20.43402671813965,1927232.317292625,0.0515289306640625,0.040740966796875,-1.000808715820312,1927232.286089625,-0.0013582120882347,0.0128641333431005,-0.0044725127518177,1927232.295513625,7.340362548828125,17.23599243164062,-144.9922790527344,1927232.289834625,-1.909479762604797,0.0502780597804634,-0.0402715785424391,-0.0002040255349129,0.0180341564118862,-0.0044762920588254,0.002640388906002,-0.0004046969115734,-0.0019818544387817,XArbitraryCorrectedZVertical,0.0088808125781864,0.0309491773408178,-0.8160326534236492,0.5771084856258076,0.0502161309123039,0.0402606949210166,-0.9979265332221984,-16.25995063781738,19.48619842529297,-37.29811096191406,-1,1,1927223.0789945,stationary,2,2024-07-07T20:02:22.123+02:00,2024-07-04T15:01:54.251+02:00,22860,0.8407643,0.0,0.0,17658.85,20,18,2024-07-07T19:59:01.472+02:00,1927229.344955,0,162.9703,92.47117,1720373026.500783,0.0.0.0,10.214.108.195,iphone Senen,1720374095.618023,3,1720373026.475875,1,0.85,0,0.0
2024-07-07T20:02:32.131+02:00,41295,1720375352.000309,40.48039159605467,-4.071648507117906,771.8782,0.0,1.251929,-1.0,-1.0,3.369918050015154,4.740062169314966,-9999,1720375352.126174,-16.38644981384277,19.5208740234375,-37.38130187988281,45.56326293945312,45.25082015991211,20.43404006958008,1927232.377199625,0.0494384765625,0.0402679443359375,-0.995452880859375,1927232.345997625,-0.0009313074406236,0.0188157651573419,0.0023896545171737,1927232.356043625,7.653732299804688,17.12809753417969,-144.8356170654297,1927232.349741625,-1.909795451538583,0.0513082802463138,-0.0401807315670624,-0.000305262801703,0.0182978268712759,-0.00181879196316,-0.001241248100996,0.0018680840730667,-0.0007792711257934,XArbitraryCorrectedZVertical,0.0093323342786356,0.0312079342270423,-0.8161191358634413,0.5769651928314328,0.0512443780899047,0.040169920772314,-0.9978779554367064,-16.41350173950195,19.37287521362305,-37.44039916992188,-1,1,1927223.0789945,stationary,2,2024-07-07T20:02:22.123+02:00,2024-07-04T15:01:54.251+02:00,22860,0.8407643,0.0,0.0,17658.85,20,18,2024-07-07T19:59:01.472+02:00,1927229.344955,0,162.9703,92.47117,1720373026.500783,0.0.0.0,10.214.108.195,iphone Senen,1720374095.618023,3,1720373026.475875,1,0.85,0,0.0
2024-07-07T20:02:32.191+02:00,41296,1720375352.000309,40.48039159605467,-4.071648507117906,771.8782,0.0,1.251929,-1.0,-1.0,3.369918050015154,4.740062169314966,-9999,1720375352.186049,-16.48446083068848,19.46035766601562,-37.2147216796875,45.58590698242188,45.27346420288086,20.43405151367188,1927232.437107625,0.0517120361328125,0.04010009765625,-0.997100830078125,1927232.405905625,-0.0031790153589099,0.0027292075101286,-0.0028067054226994,1927232.416568625,7.480575561523438,17.21923828125,-144.8590087890625,1927232.409649625,-1.910080668835697,0.0518793537162028,-0.0402669553080277,-0.0011745558585971,0.0033399313688278,-0.0033488466870039,0.0011187642812728,-0.0009341351687908,-0.0016971826553344,XArbitraryCorrectedZVertical,0.0095449387729155,0.0314064775915552,-0.8161986164040127,0.5768383037275422,0.0518140494823455,0.0402560755610466,-0.9978450536727904,-16.40175437927246,19.46834945678711,-37.3856201171875,-1,1,1927223.0789945,stationary,2,2024-07-07T20:02:22.123+02:00,2024-07-04T15:01:54.251+02:00,22860,0.8407643,0.0,0.0,17658.85,20,18,2024-07-07T19:59:01.472+02:00,1927229.344955,0,162.9703,92.47117,1720373026.500783,0.0.0.0,10.214.108.195,iphone Senen,1720374095.618023,3,1720373026.475875,1,0.85,0,0.0
2024-07-07T20:02:32.251+02:00,41297,1720375352.000309,40.48039159605467,-4.071648507117906,771.8782,0.0,1.251929,-1.0,-1.0,3.369918050015154,4.740062169314966,-9999,1720375352.24593,-16.52863502502441,19.61352920532227,-37.353271484375,45.59495162963867,45.28250885009766,20.43406295776367,1927232.497015625,0.0528411865234375,0.039031982421875,-1.003280639648438,1927232.465813625,-0.0035657063126564,-0.0145041076466441,0.0011744539951905,1927232.477093625,7.500732421875,17.2105712890625,-144.8266296386719,1927232.469557625,-1.910355120349714,0.0515208926858614,-0.0402475278150301,-0.000923209125176,-0.0156513135880231,-0.0014403953682631,-0.0001562722027301,-0.001052051782608,-0.0015100240707397,XArbitraryCorrectedZVertical,0.0094085554675485,0.0312938759062228,-0.8162794892511739,0.5767322806385892,0.0514563992619514,0.0402366630733013,-0.9978643655776978,-16.46235847473145,19.67676544189453,-37.34309387207031,-1,1,1927223.0789945,stationary,2,2024-07-07T20:02:22.123+02:00,2024-07-04T15:01:54.251+02:00,22860,0.8407643,0.0,0.0,17658.85,20,18,2024-07-07T19:59:01.472+02:00,1927229.344955,0,162.9703,92.47117,1720373026.500783,0.0.0.0,10.214.108.195,iphone Senen,1720374095.618023,3,1720373026.475875,1,0.85,0,0.0
2024-07-07T20:02:32.311+02:00,41298,1720375352.000309,40.48039159605467,-4.071648507117906,771.8782,0.0,1.251929,-1.0,-1.0,3.369918050015154,4.740062169314966,-9999,1720375352.305878,-16.64372444152832,19.57858276367188,-37.48674011230469,45.58982086181641,45.27737808227539,20.43407440185547,1927232.556923625,0.04669189453125,0.039764404296875,-0.9962921142578124,1927232.525721625,-0.0033955303952097,-0.0242680553346872,0.003295661881566,1927232.537619625,7.2843017578125,17.03414916992188,-144.7493438720703,1927232.529465625,-1.91024869512945,0.0502409464604165,-0.040176843186392,-0.0007643110584467,-0.0253579635173082,0.0044890940189361,0.0022194720804691,0.000803854316473,0.0053022503852844,XArbitraryCorrectedZVertical,0.008904924320487,0.0308964207835114,-0.8162547280283086,0.5767968051473555,0.0501792877912521,0.0401660352945327,-0.9979322552680968,-16.42925643920898,19.57099533081055,-37.28474426269531,-1,1,1927223.0789945,stationary,2,2024-07-07T20:02:22.123+02:00,2024-07-04T15:01:54.251+02:00,22860,0.8407643,0.0,0.0,17658.85,20,18,2024-07-07T19:59:01.472+02:00,1927229.344955,0,162.9703,92.47117,1720373026.500783,0.0.0.0,10.214.108.195,iphone Senen,1720374095.618023,3,1720373026.475875,1,0.85,0,0.0
2024-07-07T20:02:32.371+02:00,41299,1720375352.000309,40.48039159605467,-4.071648507117906,771.8782,0.0,1.251929,-1.0,-1.0,3.369918050015154,4.740062169314966,-9999,1720375352.365841,-16.70518493652344,19.63924789428711,-37.20411682128906,45.60243225097656,45.28998947143555,20.4340877532959,1927232.616831625,0.0482025146484375,0.0381927490234375,-0.9965972900390624,1927232.585629625,0.004953745752573,-0.0239705797284841,0.0018192053539678,1927232.598143625,7.159317016601562,17.14888000488281,-144.5741729736328,1927232.589373625,-1.910392502429358,0.0488586182877924,-0.0402212940556577,0.0024047766346484,-0.0221296492964029,0.0027746800333261,0.0001505874097347,-0.0005833394825458,-0.0088065266609191,XArbitraryCorrectedZVertical,0.0083301154589112,0.0305152841904096,-0.8163020900456062,0.5767585289570499,0.0487996824085712,0.0402104519307613,-0.997998833656311,-16.57614517211914,19.57767868041992,-37.21064758300781,-1,1,1927223.0789945,stationary,2,2024-07-07T20:02:22.123+02:00,2024-07-04T15:01:54.251+02:00,22860,0.8407643,0.0,0.0,17658.85,20,18,2024-07-07T19:59:01.472+02:00,1927229.344955,0,162.9703,92.47117,1720373026.500783,0.0.0.0,10.214.108.195,iphone Senen,1720374095.618023,3,1720373026.475875,1,0.85,0,0.0
2024-07-07T20:02:32.430+02:00,41300,1720375352.000309,40.48039159605467,-4.071648507117906,771.8782,0.0,1.251929,-1.0,-1.0,3.369918050015154,4.740062169314966,-9999,1720375352.42571,-16.65919876098633,19.6524543762207,-37.36798095703125,45.61628341674805,45.30384063720703,20.4340991973877,1927232.676739625,0.0480499267578125,0.03948974609375,-1.001708984375,1927232.645537625,-0.0017723336350172,-0.0119940787553787,0.0018002968281507,1927232.658664625,7.273483276367188,17.23020935058594,-144.6556243896484,1927232.649281625,-1.910702217204144,0.0478908130151119,-0.0401136881704405,-0.0028902753256261,-0.0075630038045346,-0.0012867008335888,-0.0010962523519992,0.0003176406025886,0.003070056438446,XArbitraryCorrectedZVertical,0.0079708515925039,0.0301910606675996,-0.816395486560924,0.5766485588370087,0.0478339977562427,0.0401029326021671,-0.9980499148368835,-16.69145774841309,19.55232620239258,-37.31492614746094,-1,1,1927223.0789945,stationary,2,2024-07-07T20:02:22.123+02:00,2024-07-04T15:01:54.251+02:00,22860,0.8407643,0.0,0.0,17658.85,20,18,2024-07-07T19:59:01.472+02:00,1927229.344955,0,162.9703,92.47117,1720373026.500783,0.0.0.0,10.214.108.195,iphone Senen,1720374095.618023,3,1720373026.475875,1,0.85,0,0.0
2024-07-07T20:02:32.490+02:00,41301,1720375352.000309,40.48039159605467,-4.071648507117906,771.8782,0.0,1.251929,-1.0,-1.0,3.369918050015154,4.740062169314966,-9999,1720375352.485487,-16.62991333007812,19.5792121887207,-37.19615173339844,45.61601257324219,45.30356979370117,20.43411064147949,1927232.736647625,0.0462646484375,0.0396728515625,-1.000869750976562,1927232.705444625,-0.0035950010642409,0.0129746543243527,8.096009696600959e-05,1927232.719189625,7.418197631835938,17.05406188964844,-144.6885833740234,1927232.709189625,-1.910712557042714,0.048170712756357,-0.0401654065047218,-0.0035523190163075,0.0188648663461208,-0.0008854612824507,-0.0016501620411872,0.0019902065396308,0.0006284117698669,XArbitraryCorrectedZVertical,0.0080703329696419,0.0302928188283863,-0.816397262517126,0.5766392124001731,0.0481132492423057,0.040154606103897,-0.998034417629242,-16.60528373718262,19.65983963012695,-37.07513427734375,-1,1,1927223.0789945,stationary,2,2024-07-07T20:02:22.123+02:00,2024-07-04T15:01:54.251+02:00,22860,0.8407643,0.0,0.0,17658.85,20,18,2024-07-07T19:59:01.472+02:00,1927229.344955,0,162.9703,92.47117,1720373026.500783,0.0.0.0,10.214.108.195,iphone Senen,1720374095.618023,3,1720373026.475875,1,0.85,0,0.0
2024-07-07T20:02:32.550+02:00,41302,1720375352.000309,40.48039159605467,-4.071648507117906,771.8782,0.0,1.251929,-1.0,-1.0,3.369918050015154,4.740062169314966,-9999,1720375352.545513,-16.52600860595703,19.76189041137695,-37.0440673828125,45.60936737060547,45.29692459106445,20.43412399291992,1927232.796554625,0.049835205078125,0.0409088134765625,-0.99273681640625,1927232.765352625,0.0060610882937908,0.0235814917832613,0.000205596035812,1927232.779707625,7.509445190429688,17.25746154785156,-144.3890686035156,1927232.769097625,-1.910640710300845,0.0495891349667697,-0.0401908480117349,0.0057700765319168,0.0260066669434309,-0.0030117291025817,-0.003203023225069,-0.0005529150366783,-0.0096652507781982,XArbitraryCorrectedZVertical,0.0086408771084184,0.0307124564466642,-0.8163706150983101,0.5766466173025765,0.0495287850499153,0.0401800274848938,-0.9979641437530518,-16.49415016174316,19.78569793701172,-36.91197204589844,-1,1,1927223.0789945,stationary,2,2024-07-07T20:02:22.123+02:00,2024-07-04T15:01:54.251+02:00,22860,0.8407643,0.0,0.0,17658.85,20,18,2024-07-07T19:59:01.472+02:00,1927229.344955,0,162.9703,92.47117,1720373026.500783,0.0.0.0,10.214.108.195,iphone Senen,1720374095.618023,3,1720373026.475875,1,0.85,0,0.0
2024-07-07T20:02:32.610+02:00,41303,1720375352.000309,40.48039159605467,-4.071648507117906,771.8782,0.0,1.251929,-1.0,-1.0,3.369918050015154,4.740062169314966,-9999,1720375352.605354,-16.31124114990234,19.73352813720703,-37.39311218261719,45.60885238647461,45.29640960693359,20.43413734436035,1927232.856462625,0.0496368408203125,0.0407257080078125,-1.004425048828125,1927232.825260625,-0.0019819245208054,0.016702014952898,-0.0041103227995336,1927232.840223625,7.660781860351562,17.15530395507812,-144.8555908203125,1927232.829004625,-1.910700216916129,0.0508078309283905,-0.0401395654407647,-0.0013264487497508,0.018104001879692,-0.0019627099391072,0.0005397982895374,-0.0010509900748729,0.0045732259750366,XArbitraryCorrectedZVertical,0.009154060305764,0.0310426396013414,-0.8163823939293763,0.5766043105811453,0.050745066255331,0.0401287861168384,-0.997905135154724,-16.54693031311035,19.80237579345703,-37.15731811523438,-1,1,1927223.0789945,stationary,2,2024-07-07T20:02:22.123+02:00,2024-07-04T15:01:54.251+02:00,22860,0.8407643,0.0,0.0,17658.85,20,18,2024-07-07T19:59:01.472+02:00,1927229.344955,0,162.9703,92.47117,1720373026.500783,0.0.0.0,10.214.108.195,iphone Senen,1720374095.618023,3,1720373026.475875,1,0.85,0,0.0
2024-07-07T20:02:32.670+02:00,41304,1720375352.000309,40.48039159605467,-4.071648507117906,771.8782,0.0,1.251929,-1.0,-1.0,3.369918050015154,4.740062169314966,-9999,1720375352.665284,-16.49690246582031,19.68057632446289,-37.19847106933594,45.59985733032227,45.28741455078125,20.43415069580078,1927232.916370417,0.05194091796875,0.039703369140625,-0.9965362548828124,1927232.885168417,0.0027025758754462,0.0059779975563287,0.0006764429272152,1927232.900741417,7.462020874023438,17.12945556640625,-144.6045837402344,1927232.888912417,-1.910509820492579,0.0514202994514643,-0.0401868701917274,-0.0004830997204408,0.0072979908436536,-0.0004600255633704,-0.001230951398611,0.0005954653024673,-0.0027536153793334,XArbitraryCorrectedZVertical,0.0093874323894234,0.0312394031046225,-0.8163246215146648,0.5766717234000209,0.0513561442494392,0.0401760526001453,-0.9978719353675842,-16.48116874694824,19.67684555053711,-37.36064147949219,-1,1,1927223.0789945,stationary,2,2024-07-07T20:02:22.123+02:00,2024-07-04T15:01:54.251+02:00,22860,0.8407643,0.0,0.0,17658.85,20,18,2024-07-07T19:59:01.472+02:00,1927229.344955,0,162.9703,92.47117,1720373026.500783,0.0.0.0,10.214.108.195,iphone Senen,1720374095.618023,3,1720373026.475875,1,0.85,0,0.0
2024-07-07T20:02:32.730+02:00,41305,1720375352.000309,40.48039159605467,-4.071648507117906,771.8782,0.0,1.251929,-1.0,-1.0,3.369918050015154,4.740062169314966,-9999,1720375352.725216,-16.47807693481445,19.71674728393555,-37.27296447753906,45.58893203735352,45.2764892578125,20.43416213989258,1927232.976278417,0.051422119140625,0.0418243408203125,-0.9959259033203124,1927232.945076417,0.0038932752795517,-0.0063476446084678,0.0011081412667408,1927232.961258417,7.523422241210938,17.18702697753906,-144.8360900878906,1927232.948820417,-1.91033493991014,0.05143392124974,-0.0401283011278146,0.003352025989443,-0.0063197780400514,0.0025469111278653,-0.0007716380059719,-0.0007193014025688,-0.004781424999237,XArbitraryCorrectedZVertical,0.0094071764975324,0.0312202662700044,-0.8162741624104929,0.5767437787875795,0.0513698607683181,0.0401175320148468,-0.997873604297638,-16.4267692565918,19.74434661865234,-37.25,-1,1,1927223.0789945,stationary,2,2024-07-07T20:02:22.123+02:00,2024-07-04T15:01:54.251+02:00,22860,0.8407643,0.0,0.0,17658.85,20,18,2024-07-07T19:59:01.472+02:00,1927229.344955,0,162.9703,92.47117,1720373026.500783,0.0.0.0,10.214.108.195,iphone Senen,1720374095.618023,3,1720373026.475875,1,0.85,0,0.0
2024-07-07T20:02:32.790+02:00,41306,1720375352.000309,40.48039159605467,-4.071648507117906,771.8782,0.0,1.251929,-1.0,-1.0,3.369918050015154,4.740062169314966,-9999,1720375352.785071,-16.58471870422363,19.83449935913086,-37.1474609375,45.57970809936523,45.26726531982422,20.43417358398438,1927233.036186417,0.0514984130859375,0.0408782958984375,-1.0020751953125,1927233.004984417,-0.0010428938549011,-0.015245265327394,0.0022852586116641,1927233.021776417,7.429519653320312,17.32096862792969,-144.4377746582031,1927233.008728417,-1.910168963201771,0.0507740135126961,-0.0401762946449105,-0.0033462273422628,-0.0125060891732573,3.991852281615138e-05,-0.0019135624170303,0.0008654370903968,0.0011402368545532,XArbitraryCorrectedZVertical,0.0091214028588382,0.0310502947409831,-0.8162293377422466,0.5768211313998968,0.0507112443447113,0.0401654876768589,-0.9979053735733032,-16.42244911193848,19.76852035522461,-37.050537109375,-1,1,1927223.0789945,stationary,2,2024-07-07T20:02:22.123+02:00,2024-07-04T15:01:54.251+02:00,22860,0.8407643,0.0,0.0,17658.85,20,18,2024-07-07T19:59:01.472+02:00,1927229.344955,0,162.9703,92.47117,1720373026.500783,0.0.0.0,10.214.108.195,iphone Senen,1720374095.618023,3,1720373026.475875,1,0.85,0,0.0
2024-07-07T20:02:32.850+02:00,41307,1720375352.000309,40.48039159605467,-4.071648507117906,771.8782,0.0,1.251929,-1.0,-1.0,3.369918050015154,4.740062169314966,-9999,1720375352.845077,-16.52552604675293,19.77946472167969,-37.36166381835938,45.57056427001953,45.25812149047852,20.4341869354248,1927233.096094417,0.0486297607421875,0.0401458740234375,-0.9980010986328124,1927233.064892417,-0.0007707187905907,-0.0066858660429716,0.0036775590851902,1927233.082292417,7.522567749023438,17.21400451660156,-145.1194610595703,1927233.068636417,-1.909959224321152,0.0502150261772964,-0.0401493075867176,0.0005802819505333,-0.0027501082513481,-0.0011658377479761,0.0012839809060096,0.0009839534759521,-0.0018364787101745,XArbitraryCorrectedZVertical,0.0088978291374999,0.0308790036854854,-0.8161713762391194,0.5769157742962855,0.050153475254774,0.0401385203003883,-0.997934639453888,-16.57864761352539,19.74052047729492,-37.32270812988281,-1,1,1927223.0789945,stationary,2,2024-07-07T20:02:22.123+02:00,2024-07-04T15:01:54.251+02:00,22860,0.8407643,0.0,0.0,17658.85,20,18,2024-07-07T19:59:01.472+02:00,1927229.344955,0,162.9703,92.47117,1720373026.500783,0.0.0.0,10.214.108.195,iphone Senen,1720374095.618023,3,1720373026.475875,1,0.85,0,0.0
2024-07-07T20:02:32.910+02:00,41308,1720375352.000309,40.48039159605467,-4.071648507117906,771.8782,0.0,1.251929,-1.0,-1.0,3.369918050015154,4.740062169314966,-9999,1720375352.905005,-16.53390693664551,19.8998908996582,-37.32012939453125,45.57046127319336,45.25801849365234,20.4341983795166,1927233.156002417,0.050567626953125,0.0398712158203125,-1.00067138671875,1927233.124799417,0.0014887070283293,0.0020018981304019,-0.0027028422337025,1927233.142809417,7.496414184570312,17.26272583007812,-144.7998046875,1927233.128544417,-1.909982249220221,0.0503101957926123,-0.0401788238914927,0.0032507632859051,0.0036579361185431,-0.0032752775587141,-0.0026256330311298,0.0006645433604717,-0.0030326247215271,XArbitraryCorrectedZVertical,0.0089284948876404,0.03091838914741,-0.8161775745400754,0.5769044759466303,0.0502483882009983,0.0401680134236812,-0.9979286789894104,-16.60635948181152,19.70476150512695,-37.10783386230469,-1,1,1927223.0789945,stationary,2,2024-07-07T20:02:22.123+02:00,2024-07-04T15:01:54.251+02:00,22860,0.8407643,0.0,0.0,17658.85,20,18,2024-07-07T19:59:01.472+02:00,1927230.410223,0,162.9783,92.4711,1720373026.500783,0.0.0.0,10.214.108.195,iphone Senen,1720374095.618023,3,1720373026.475875,1,0.85,0,0.0
2024-07-07T20:02:32.970+02:00,41309,1720375352.000309,40.48039159605467,-4.071648507117906,771.8782,0.0,1.251929,-1.0,-1.0,3.369918050015154,4.740062169314966,-9999,1720375352.96491,-16.56339836120605,19.74735260009766,-36.91146850585938,45.5645751953125,45.25213241577148,20.43420791625977,1927233.215910417,0.0510711669921875,0.040374755859375,-0.9978485107421876,1927233.184707417,-0.0004588626616168,0.0061889202333986,0.0014186658663675,1927233.203324417,7.4888916015625,17.25213623046875,-144.7856292724609,1927233.188452417,-1.909865140677783,0.05068212259422,-0.0401302407627638,0.0018978293519467,0.0079742511734366,-0.0008333103614859,0.0009246245026588,-4.075467586517334e-06,-0.0007148385047912,XArbitraryCorrectedZVertical,0.009092493908559,0.0310063932129601,-0.8161421495300997,0.5769472317697438,0.0506196394562721,0.040119469165802,-0.9979118704795836,-16.45284843444824,19.76311111450195,-37.15702819824219,-1,1,1927223.0789945,stationary,2,2024-07-07T20:02:22.123+02:00,2024-07-04T15:01:54.251+02:00,22860,0.8407643,0.0,0.0,17658.85,20,18,2024-07-07T19:59:01.472+02:00,1927230.410223,0,162.9783,92.4711,1720373026.500783,0.0.0.0,10.214.108.195,iphone Senen,1720374095.618023,3,1720373026.475875,1,0.85,0,0.0
2024-07-07T20:02:33.030+02:00,41310,1720375352.000309,40.48039159605467,-4.071648507117906,771.8782,0.0,1.251929,-1.0,-1.0,3.369918050015154,4.740062169314966,-9999,1720375353.024742,-16.34942245483398,19.58789825439453,-37.00050354003906,45.5535888671875,45.24114608764648,20.4342155456543,1927233.275817417,0.051300048828125,0.040740966796875,-0.999664306640625,1927233.244615417,-0.0040296288207173,0.00464508542791,0.0027134947013109,1927233.263832417,7.812820434570312,17.08737182617188,-144.4468688964844,1927233.248360417,-1.909743853036792,0.0510973961540881,-0.0401081658602528,-0.0033270954154431,0.007384427357465,-0.0001801734906621,0.0007238015532493,0.0013607554137706,-9.41753387451172e-05,XArbitraryCorrectedZVertical,0.0092664476353888,0.0311177499983847,-0.8161052532393354,0.5769905369621751,0.0510340891778469,0.0400974117219448,-0.9978916645050048,-16.39339256286621,19.62288665771484,-36.86521911621094,-1,1,1927223.0789945,stationary,2,2024-07-07T20:02:22.123+02:00,2024-07-04T15:01:54.251+02:00,22860,0.8407643,0.0,0.0,17658.85,20,18,2024-07-07T19:59:01.472+02:00,1927230.410223,0,162.9783,92.4711,1720373026.500783,0.0.0.0,10.214.108.195,iphone Senen,1720374095.618023,3,1720373026.475875,1,0.85,0,0.0
2024-07-07T20:02:33.089+02:00,41311,1720375353.000318,40.48039159605467,-4.071648507117906,771.8782,0.0,1.180105,-1.0,-1.0,3.369362643083935,4.740456983475251,-9999,1720375353.084754,-16.41481399536133,19.53651428222656,-37.17152404785156,45.55059814453125,45.23815536499023,20.43424224853516,1927233.335725417,0.0505218505859375,0.039154052734375,-1.002090454101562,1927233.304523417,7.776429993100464e-05,-0.0075916070491075,-0.0022927154786884,1927233.324345417,7.523880004882812,17.02626037597656,-144.6974945068359,1927233.308267417,-1.909584397476245,0.0510813955418506,-0.0401319626216673,0.0003344683209434,-0.0050172801129519,-0.0006130893016234,-0.0005419217050075,0.0014285296201705,-0.0006589293479919,XArbitraryCorrectedZVertical,0.0092505620163116,0.0311235748463213,-0.816059302927817,0.57705546240807,0.0510180704295635,0.0401211902499198,-0.9978914856910706,-16.55200576782227,19.7237434387207,-37.13087463378906,-1,1,1927223.0789945,stationary,2,2024-07-07T20:02:22.123+02:00,2024-07-04T15:01:54.251+02:00,22860,0.8407643,0.0,0.0,17658.85,20,18,2024-07-07T19:59:01.472+02:00,1927230.410223,0,162.9783,92.4711,1720373026.500783,0.0.0.0,10.214.108.195,iphone Senen,1720374095.618023,3,1720373026.475875,1,0.85,0,0.0
2024-07-07T20:02:33.149+02:00,41312,1720375353.000318,40.48039159605467,-4.071648507117906,771.8782,0.0,1.180105,-1.0,-1.0,3.369362643083935,4.740456983475251,-9999,1720375353.144555,-16.29310607910156,19.56277084350586,-36.91445922851562,45.55022430419922,45.2377815246582,20.43424987792969,1927233.395633417,0.0510101318359375,0.0406494140625,-0.9963531494140624,1927233.364431417,0.0011475561186671,-0.0075106467120349,-0.0019158780341967,1927233.384856417,7.647842407226562,17.11563110351562,-144.2797698974609,1927233.368175417,-1.909648426054197,0.0506689428022982,-0.0400563191961528,0.0032108635641634,-0.0088739125058054,-0.0022336379624903,0.0010596998035907,-0.0022800676524639,0.00118088722229,XArbitraryCorrectedZVertical,0.0091051161847848,0.0309734353587833,-0.8160797403335807,0.5770370024076077,0.0506066381931304,0.0400456078350544,-0.997915506362915,-16.35567092895508,19.49816131591797,-37.01927185058594,-1,1,1927223.0789945,stationary,2,2024-07-07T20:02:22.123+02:00,2024-07-04T15:01:54.251+02:00,22860,0.8407643,0.0,0.0,17658.85,20,18,2024-07-07T19:59:01.472+02:00,1927230.410223,0,162.9783,92.4711,1720373026.500783,0.0.0.0,10.214.108.195,iphone Senen,1720374095.618023,3,1720373026.475875,1,0.85,0,0.0
2024-07-07T20:02:33.209+02:00,41313,1720375353.000318,40.48039159605467,-4.071648507117906,771.8782,0.0,1.180105,-1.0,-1.0,3.369362643083935,4.740456983475251,-9999,1720375353.204469,-16.40472793579102,19.5611572265625,-37.052978515625,45.54095458984375,45.22851181030273,20.43425369262695,1927233.455541417,0.049835205078125,0.03912353515625,-1.000320434570312,1927233.424339417,-6.950850365683436e-05,-0.0057977014221251,0.0006583334179595,1927233.445369417,7.57366943359375,17.078857421875,-144.5394134521484,1927233.428083417,-1.909453877284547,0.0504047806125264,-0.0400836473309768,0.0001167027221526,-7.742131128907204e-05,0.000783531460911,-0.0012248493731021,0.0012174062430858,-0.001980721950531,XArbitraryCorrectedZVertical,0.0089864226590489,0.03090923547321,-0.8160247914143692,0.5771201057682551,0.0503429695963859,0.0400729142129421,-0.997927725315094,-16.34471702575684,19.54231643676758,-36.98640441894531,-1,1,1927223.0789945,stationary,2,2024-07-07T20:02:22.123+02:00,2024-07-04T15:01:54.251+02:00,22860,0.8407643,0.0,0.0,17658.85,20,18,2024-07-07T19:59:01.472+02:00,1927230.410223,0,162.9783,92.4711,1720373026.500783,0.0.0.0,10.214.108.195,iphone Senen,1720374095.618023,3,1720373026.475875,1,0.85,0,0.0
2024-07-07T20:02:33.269+02:00,41314,1720375353.000318,40.48039159605467,-4.071648507117906,771.8782,0.0,1.180105,-1.0,-1.0,3.369362643083935,4.740456983475251,-9999,1720375353.264457,-16.46585464477539,19.65093994140625,-37.08749389648438,45.53912353515625,45.22668075561523,20.43425750732422,1927233.515449417,0.049652099609375,0.040283203125,-1.001007080078125,1927233.484247417,0.0003547330561559,0.0061862566508352,0.0008229167433455,1927233.505883417,7.464797973632812,17.20437622070312,-144.5312805175781,1927233.487991417,-1.909400235722258,0.0506271415688749,-0.0400412009648592,-0.001462769228965,0.0081600407138466,-0.0004659186524804,-0.0005923435091972,-3.71783971786499e-05,-0.0017613768577575,XArbitraryCorrectedZVertical,0.0090885832412747,0.0309563368105028,-0.8160083512458802,0.577139268191739,0.050564955919981,0.0400305017828941,-0.99791818857193,-16.42507553100586,19.65956497192383,-37.12237548828125,-1,1,1927223.0789945,stationary,2,2024-07-07T20:02:22.123+02:00,2024-07-04T15:01:54.251+02:00,22860,0.8407643,0.0,0.0,17658.85,20,18,2024-07-07T19:59:01.472+02:00,1927230.410223,0,162.9783,92.4711,1720373026.500783,0.0.0.0,10.214.108.195,iphone Senen,1720374095.618023,3,1720373026.475875,1,0.85,0,0.0
2024-07-07T20:02:33.329+02:00,41315,1720375353.000318,40.48039159605467,-4.071648507117906,771.8782,0.0,1.180105,-1.0,-1.0,3.369362643083935,4.740456983475251,-9999,1720375353.324359,-16.4861946105957,19.66989135742188,-37.27845764160156,45.55062866210938,45.23818588256836,20.43425941467285,1927233.575357417,0.049591064453125,0.04058837890625,-0.9965972900390624,1927233.544154417,-0.0011438276851549,0.0150942644104361,-0.0005331648280844,1927233.566397417,7.45770263671875,17.22947692871094,-144.7561492919922,1927233.547899417,-1.909508832660846,0.0513884048842594,-0.0400087862894746,0.0015458813868463,0.0164458956569433,-0.0040094959549605,-0.001916654407978,0.0011853948235511,-0.0005170702934265,XArbitraryCorrectedZVertical,0.0094102437847365,0.0311622873248835,-0.8160361696449339,0.5770835471388898,0.0513246841728687,0.0399981141090393,-0.9978806972503662,-16.54735946655273,19.63151550292969,-37.31413269042969,-1,1,1927223.0789945,stationary,2,2024-07-07T20:02:22.123+02:00,2024-07-04T15:01:54.251+02:00,22860,0.8407643,0.0,0.0,17658.85,20,18,2024-07-07T19:59:01.472+02:00,1927230.410223,0,162.9783,92.4711,1720373026.500783,0.0.0.0,10.214.108.195,iphone Senen,1720374095.618023,3,1720373026.475875,1,0.85,0,0.0
2024-07-07T20:02:33.389+02:00,41316,1720375353.000318,40.48039159605467,-4.071648507117906,771.8782,0.0,1.180105,-1.0,-1.0,3.369362643083935,4.740456983475251,-9999,1720375353.384173,-16.35195159912109,19.66959762573242,-37.32595825195312,45.55551910400391,45.24307632446289,20.43426132202148,1927233.635265417,0.0533294677734375,0.039093017578125,-1.000961303710938,1927233.604062417,-0.0015209312550723,0.0144212832674384,-0.0016772588714957,1927233.626911417,7.605499267578125,17.17543029785156,-144.767822265625,1927233.607807417,-1.909717617832684,0.0523302785262604,-0.0400297276162362,-0.0013324108440428,0.0171675086021423,0.0001171649782918,0.0020721293985843,-0.0004224404692649,-0.0012381076812744,XArbitraryCorrectedZVertical,0.0097917750138238,0.0314415696310358,-0.8160918737253844,0.576983280553944,0.0522644966840744,0.0400190390646457,-0.9978311061859132,-16.4574146270752,19.61730575561523,-37.27049255371094,-1,1,1927223.0789945,stationary,2,2024-07-07T20:02:22.123+02:00,2024-07-04T15:01:54.251+02:00,22860,0.8407643,0.0,0.0,17658.85,20,18,2024-07-07T19:59:01.472+02:00,1927230.410223,0,162.9783,92.4711,1720373026.500783,0.0.0.0,10.214.108.195,iphone Senen,1720374095.618023,3,1720373026.475875,1,0.85,0,0.0
2024-07-07T20:02:33.449+02:00,41317,1720375353.000318,40.48039159605467,-4.071648507117906,771.8782,0.0,1.180105,-1.0,-1.0,3.369362643083935,4.740456983475251,-9999,1720375353.444065,-16.2988395690918,19.68162155151367,-37.34269714355469,45.54986953735352,45.2374267578125,20.43425941467285,1927233.695173417,0.0533599853515625,0.0396270751953125,-0.996978759765625,1927233.663970417,-0.0018173410790041,0.0050866375677287,-0.0009725864510983,1927233.687426417,7.624923706054688,17.22225952148438,-144.8103637695312,1927233.667715417,-1.909655809337506,0.0530294306650461,-0.0400171334392405,-0.0004130464512854,0.0084346355870366,0.0003120652399957,0.0007641278207302,-0.0008065849542617,0.0011669993400573,XArbitraryCorrectedZVertical,0.0100797203348783,0.0316384429820077,-0.8160705839992365,0.5769977231896698,0.0529621466994285,0.0400064550340175,-0.9977948069572448,-16.30353736877441,19.74356842041016,-37.20758056640625,-1,1,1927223.0789945,stationary,2,2024-07-07T20:02:22.123+02:00,2024-07-04T15:01:54.251+02:00,22860,0.8407643,0.0,0.0,17658.85,20,18,2024-07-07T19:59:01.472+02:00,1927230.410223,0,162.9783,92.4711,1720373026.500783,0.0.0.0,10.214.108.195,iphone Senen,1720374095.618023,3,1720373026.475875,1,0.85,0,0.0
2024-07-07T20:02:33.509+02:00,41318,1720375353.000318,40.48039159605467,-4.071648507117906,771.8782,0.0,1.180105,-1.0,-1.0,3.369362643083935,4.740456983475251,-9999,1720375353.504016,-16.50770568847656,19.75998687744141,-37.38150024414062,45.54257965087891,45.23013687133789,20.43425750732422,1927233.755080417,0.0514678955078125,0.0404052734375,-0.998382568359375,1927233.723878417,0.001708684139885,-0.0016644756542518,0.0016381103778257,1927233.747943417,7.35302734375,17.32369995117188,-144.8440399169922,1927233.727622417,-1.909498453766921,0.0532520246895053,-0.0399902019546235,0.0004442633653525,0.0014868804719299,0.0017426424892619,0.0010760203003883,-0.0006423518061637,0.0005459785461425,XArbitraryCorrectedZVertical,0.0101758324942004,0.0316924798792418,-0.8160240833306237,0.5770589145324947,0.0531843043863773,0.0399795435369014,-0.9977840781211852,-16.40387916564941,19.72872543334961,-37.46080017089844,-1,1,1927223.0789945,stationary,2,2024-07-07T20:02:22.123+02:00,2024-07-04T15:01:54.251+02:00,22860,0.8407643,0.0,0.0,17658.85,20,18,2024-07-07T19:59:01.472+02:00,1927230.410223,0,162.9783,92.4711,1720373026.500783,0.0.0.0,10.214.108.195,iphone Senen,1720374095.618023,3,1720373026.475875,1,0.85,0,0.0
2024-07-07T20:02:33.569+02:00,41319,1720375353.000318,40.48039159605467,-4.071648507117906,771.8782,0.0,1.180105,-1.0,-1.0,3.369362643083935,4.740456983475251,-9999,1720375353.56395,-16.42746734619141,19.96062088012695,-37.08065795898438,45.52297973632812,45.21053695678711,20.43425559997559,1927233.814988417,0.0548553466796875,0.040374755859375,-0.999237060546875,1927233.783786417,-0.0030911311041563,-0.0139472410082817,-0.0021188110113143,1927233.808458417,7.523666381835938,17.50068664550781,-144.5474090576172,1927233.787530417,-1.909323387407564,0.0529535564331349,-0.0400196185661131,-0.0010319643188267,-0.0091081615537405,-0.0010511804139241,0.0010382048785686,-0.0018314085900783,0.0005605816841125,XArbitraryCorrectedZVertical,0.0100427859230557,0.0316192353147177,-0.8159750612053087,0.5771345709700538,0.0528864338994026,0.0400089360773563,-0.9977987408638,-16.36141395568848,19.87812805175781,-37.15182495117188,-1,1,1927223.0789945,stationary,2,2024-07-07T20:02:22.123+02:00,2024-07-04T15:01:54.251+02:00,22860,0.8407643,0.0,0.0,17658.85,20,18,2024-07-07T19:59:01.472+02:00,1927230.410223,0,162.9783,92.4711,1720373026.500783,0.0.0.0,10.214.108.195,iphone Senen,1720374095.618023,3,1720373026.475875,1,0.85,0,0.0
2024-07-07T20:02:33.629+02:00,41320,1720375353.000318,40.48039159605467,-4.071648507117906,771.8782,0.0,1.180105,-1.0,-1.0,3.369362643083935,4.740456983475251,-9999,1720375353.623853,-16.36979866027832,19.76256942749023,-36.96534729003906,45.50337982177734,45.19093704223633,20.43425369262695,1927233.874896292,0.0531005859375,0.0394744873046875,-1.000350952148438,1927233.843694417,-0.0010378338629379,-0.0189063139259815,0.0022277343086898,1927233.868977292,7.568740844726562,17.31986999511719,-144.3367767333984,1927233.847438417,-1.908971645390679,0.0521630520694217,-0.0400783636625455,-0.001621309784241,-0.0123103391379118,0.0031060769688338,0.0012777894735336,0.0005360431969165,-0.000651478767395,XArbitraryCorrectedZVertical,0.0096977679337464,0.0314167755071403,-0.8158774063404534,0.5772895198897079,0.0520975291728973,0.0400676354765892,-0.9978379011154176,-16.31855964660645,19.77422714233398,-37.009521484375,-1,1,1927223.0789945,stationary,2,2024-07-07T20:02:22.123+02:00,2024-07-04T15:01:54.251+02:00,22860,0.8407643,0.0,0.0,17658.85,20,18,2024-07-07T19:59:01.472+02:00,1927230.410223,0,162.9783,92.4711,1720373026.500783,0.0.0.0,10.214.108.195,iphone Senen,1720374095.618023,3,1720373026.475875,1,0.85,0,0.0
2024-07-07T20:02:33.689+02:00,41321,1720375353.000318,40.48039159605467,-4.071648507117906,771.8782,0.0,1.180105,-1.0,-1.0,3.369362643083935,4.740456983475251,-9999,1720375353.683696,-16.44833946228027,19.62918853759766,-37.08250427246094,45.48002243041992,45.16757965087891,20.43424797058105,1927233.934804292,0.0492706298828125,0.0402679443359375,-0.9921112060546876,1927233.903602292,0.0044496096670627,-0.0050975563935935,0.0059146145358681,1927233.929499292,7.47686767578125,17.17707824707031,-144.5693359375,1927233.907346292,-1.908450011440825,0.0517550743670199,-0.0399298033229263,0.0013387806247919,-0.0036532557569444,0.0018591685220599,-0.0013976953923702,-0.0013602003455162,-0.0024706721305847,XArbitraryCorrectedZVertical,0.0095661338897826,0.0312409507771227,-0.8157288759262851,0.5775111391361213,0.0516907386481761,0.0399191938340663,-0.9978649616241456,-16.37861442565918,19.78115081787109,-37.19712829589844,-1,1,1927223.0789945,stationary,2,2024-07-07T20:02:22.123+02:00,2024-07-04T15:01:54.251+02:00,22860,0.8407643,0.0,0.0,17658.85,20,18,2024-07-07T19:59:01.472+02:00,1927230.410223,0,162.9783,92.4711,1720373026.500783,0.0.0.0,10.214.108.195,iphone Senen,1720374095.618023,3,1720373026.475875,1,0.85,0,0.0
2024-07-07T20:02:33.748+02:00,41322,1720375353.000318,40.48039159605467,-4.071648507117906,771.8782,0.0,1.180105,-1.0,-1.0,3.369362643083935,4.740456983475251,-9999,1720375353.743643,-16.30193710327148,19.65679168701172,-37.04812622070312,45.48697280883789,45.17453002929688,20.43424224853516,1927233.994712292,0.0520782470703125,0.039794921875,-1.006851196289062,1927233.963510292,-0.0041012680158019,0.0029414615128189,-0.0031510521657764,1927233.990021292,7.604461669921875,17.21205139160156,-144.4202880859375,1927233.967254292,-1.908407664031854,0.0519108770228343,-0.0400930667458116,-0.0025193870533257,0.0072768824175,-0.0055242776870727,-0.0014154948294162,0.0008417852222919,0.0012378692626953,XArbitraryCorrectedZVertical,0.009581807041262,0.0313526842566669,-0.8157157741007497,0.5775232090256053,0.0518458671867847,0.0400823280215263,-0.9978504180908204,-16.48691749572754,19.79316329956055,-37.20127868652344,-1,1,1927223.0789945,stationary,2,2024-07-07T20:02:22.123+02:00,2024-07-04T15:01:54.251+02:00,22860,0.8407643,0.0,0.0,17658.85,20,18,2024-07-07T19:59:01.472+02:00,1927230.410223,0,162.9783,92.4711,1720373026.500783,0.0.0.0,10.214.108.195,iphone Senen,1720374095.618023,3,1720373026.475875,1,0.85,0,0.0
2024-07-07T20:02:33.808+02:00,41323,1720375353.000318,40.48039159605467,-4.071648507117906,771.8782,0.0,1.180105,-1.0,-1.0,3.369362643083935,4.740456983475251,-9999,1720375353.803518,-16.34642028808594,19.85918807983398,-37.09063720703125,45.48371124267578,45.17126846313477,20.43423652648926,1927234.054620292,0.0533599853515625,0.03924560546875,-0.9950714111328124,1927234.023417292,0.0049430932849645,0.0157406143844127,-0.0003635214816313,1927234.050543292,7.561508178710938,17.450439453125,-144.5410461425781,1927234.027162292,-1.908597444166922,0.0525749600393086,-0.0399600399535384,0.0030311197042465,0.0184421371668577,-0.0019943183287978,0.0031400881707668,-0.0006579831242561,-0.0032470226287841,XArbitraryCorrectedZVertical,0.0098941131011651,0.031489288765233,-0.8157674358513884,0.5774376397728797,0.0525087900459766,0.0399494059383869,-0.997821033000946,-16.32705497741699,19.60863494873047,-37.13624572753906,-1,1,1927223.0789945,stationary,2,2024-07-07T20:02:22.123+02:00,2024-07-04T15:01:54.251+02:00,22860,0.8407643,0.0,0.0,17658.85,20,18,2024-07-07T19:59:01.472+02:00,1927230.410223,0,162.9783,92.4711,1720373026.500783,0.0.0.0,10.214.108.195,iphone Senen,1720374095.618023,3,1720373026.475875,1,0.85,0,0.0
2024-07-07T20:02:33.868+02:00,41324,1720375353.000318,40.48039159605467,-4.071648507117906,771.8782,0.0,1.180105,-1.0,-1.0,3.369362643083935,4.740456983475251,-9999,1720375353.863476,-16.21953964233398,19.55455780029297,-37.49690246582031,45.46662521362305,45.15418243408203,20.43423461914062,1927234.114528292,0.0528717041015625,0.0421142578125,-0.9965362548828124,1927234.083325292,-0.0048709213733673,0.0161022711545229,0.0049643986858427,1927234.111066292,7.767623901367188,17.09147644042969,-145.0344848632812,1927234.087070292,-1.908144837179976,0.0537139037291501,-0.039975196690219,-0.0034055050928145,0.0181700885295867,0.0026853717863559,-0.0005140118300914,-0.0014055557548999,0.0022308826446533,XArbitraryCorrectedZVertical,0.0103470830012686,0.0318266377699011,-0.8156309718065998,0.5776039624490988,0.0536451861262321,0.0399645492434501,-0.997759997844696,-16.16346549987793,19.80378341674805,-37.1749267578125,-1,1,1927223.0789945,stationary,2,2024-07-07T20:02:22.123+02:00,2024-07-04T15:01:54.251+02:00,22860,0.8407643,0.0,0.0,17658.85,20,18,2024-07-07T19:59:01.472+02:00,1927230.410223,0,162.9783,92.4711,1720373026.500783,0.0.0.0,10.214.108.195,iphone Senen,1720374095.618023,3,1720373026.475875,1,0.85,0,0.0
2024-07-07T20:02:33.928+02:00,41325,1720375353.000318,40.48039159605467,-4.071648507117906,771.8782,0.0,1.180105,-1.0,-1.0,3.369362643083935,4.740456983475251,-9999,1720375353.92335,-16.15941047668457,19.7503547668457,-37.36238098144531,45.4652214050293,45.15277862548828,20.43422889709473,1927234.174435292,0.0545501708984375,0.0384979248046875,-1.00482177734375,1927234.143233292,-0.0002572613593656,0.0069607039913535,-0.0013041499769315,1927234.171591292,7.777297973632812,17.32243347167969,-144.8347015380859,1927234.146977292,-1.908141624941181,0.0544981501849209,-0.040133913113835,-0.0007992057362571,0.0077072726562619,-0.0038672289811074,-0.0007620751857757,0.0005873478949069,-0.0064238309860229,XArbitraryCorrectedZVertical,0.0106209538533803,0.0321178222521506,-0.8156258611139285,0.5775899795394279,0.0544273145496845,0.0401231385767459,-0.9977113008499146,-16.0684642791748,19.56687927246094,-37.30641174316406,-1,1,1927223.0789945,stationary,2,2024-07-07T20:02:22.123+02:00,2024-07-04T15:01:54.251+02:00,22860,0.8407643,0.0,0.0,17658.85,20,18,2024-07-07T19:59:01.472+02:00,1927230.410223,0,162.9783,92.4711,1720373026.500783,0.0.0.0,10.214.108.195,iphone Senen,1720374095.618023,3,1720373026.475875,1,0.85,0,0.0
2024-07-07T20:02:33.988+02:00,41326,1720375353.000318,40.48039159605467,-4.071648507117906,771.8782,0.0,1.180105,-1.0,-1.0,3.369362643083935,4.740456983475251,-9999,1720375353.983307,-16.00498580932617,19.73213195800781,-37.345703125,45.45500946044922,45.1425666809082,20.43422508239746,1927234.234343292,0.0554351806640625,0.040008544921875,-0.993194580078125,1927234.203141292,0.0016532903537154,-0.0042725093662738,0.0010761833982542,1927234.232115292,8.018783569335938,17.25827026367188,-144.8779449462891,1927234.206885292,-1.908136222395079,0.0546118520871502,-0.0399431531575724,-0.0025271389167755,-0.0003903040196746,-0.0033515118993818,0.0017028003931045,-0.0004427470266819,-0.0028213262557983,XArbitraryCorrectedZVertical,0.0107224115846157,0.0320729535462874,-0.8156237486323151,0.5775935923315983,0.0545411705970764,0.0399325340986251,-0.9977127313613892,-16.08758926391602,19.60897445678711,-37.30900573730469,-1,1,1927223.0789945,stationary,2,2024-07-07T20:02:22.123+02:00,2024-07-04T15:01:54.251+02:00,22860,0.8407643,0.0,0.0,17658.85,20,18,2024-07-07T19:59:01.472+02:00,1927231.475475,0,162.9783,92.47108,1720373026.500783,0.0.0.0,10.214.108.195,iphone Senen,1720374095.618023,3,1720373026.475875,1,0.85,0,0.0
2024-07-07T20:02:34.048+02:00,41327,1720375354.000327,40.48039159605467,-4.071648507117906,771.8782,0.0,1.179583,-1.0,-1.0,3.368881204251435,4.740799137743577,-9999,1720375354.047309,-16.2205696105957,19.64458847045898,-37.21493530273438,45.43751907348633,45.12507629394531,20.43424224853516,1927234.294251292,0.05377197265625,0.040252685546875,-1.000595092773438,1927234.263049292,-0.0055572181008756,-0.0172799210995435,0.0007898935582488,1927234.292638292,7.958343505859375,17.18853759765625,-144.705078125,1927234.266793292,-1.907734742086547,0.053983170131541,-0.0400341686443707,-0.0026744117494672,-0.0195717215538024,0.003169770585373,-0.000645212829113,-0.0002437718212604,0.0042434334754943,XArbitraryCorrectedZVertical,0.0104332894007795,0.0319305731366129,-0.8155111007923456,0.5777659257613941,0.0539137199521064,0.0400234758853912,-0.9977431893348694,-16.04590606689453,19.54805755615234,-37.03016662597656,-1,1,1927223.0789945,stationary,2,2024-07-07T20:02:22.123+02:00,2024-07-04T15:01:54.251+02:00,22860,0.8407643,0.0,0.0,17658.85,20,18,2024-07-07T19:59:01.472+02:00,1927231.475475,0,162.9783,92.47108,1720373026.500783,0.0.0.0,10.214.108.195,iphone Senen,1720374095.618023,3,1720373026.475875,1,0.85,0,0.0
2024-07-07T20:02:34.108+02:00,41328,1720375354.000327,40.48039159605467,-4.071648507117906,771.8782,0.0,1.179583,-1.0,-1.0,3.368881204251435,4.740799137743577,-9999,1720375354.103248,-16.21866226196289,19.59922409057617,-37.14973449707031,45.42059326171875,45.10815048217773,20.43423843383789,1927234.354159292,0.0507659912109375,0.03826904296875,-0.994873046875,1927234.322957292,0.0014791196445003,-0.022944463416934,0.001929193851538,1927234.353161292,7.575241088867188,17.08219909667969,-144.7949829101562,1927234.326701292,-1.907390695156288,0.0527741211304127,-0.0400878533931939,0.0025607496500015,-0.0221055299043655,0.0038156639784574,-0.0007815100252628,-0.0013960488140583,-0.0055972337722778,XArbitraryCorrectedZVertical,0.0099193234372003,0.0316048751989514,-0.8154178180974584,0.5779244760230752,0.0527072474360466,0.0400771163403987,-0.9978054761886596,-16.19779586791992,19.49216079711914,-37.01284790039062,-1,1,1927223.0789945,stationary,2,2024-07-07T20:02:22.123+02:00,2024-07-04T15:01:54.251+02:00,22860,0.8407643,0.0,0.0,17658.85,20,18,2024-07-07T19:59:01.472+02:00,1927231.475475,0,162.9783,92.47108,1720373026.500783,0.0.0.0,10.214.108.195,iphone Senen,1720374095.618023,3,1720373026.475875,1,0.85,0,0.0
2024-07-07T20:02:34.168+02:00,41329,1720375354.000327,40.48039159605467,-4.071648507117906,771.8782,0.0,1.179583,-1.0,-1.0,3.368881204251435,4.740799137743577,-9999,1720375354.163099,-16.08550262451172,19.46791839599609,-37.34638977050781,45.42517471313477,45.11273193359375,20.43423652648926,1927234.414067292,0.0501861572265625,0.0406341552734375,-0.997833251953125,1927234.382865292,-0.0056794574484229,-0.0162668544799089,-0.0002838929649442,1927234.413684292,7.483001708984375,17.37498474121094,-144.8071594238281,1927234.386609292,-1.907378822220431,0.0518103637580441,-0.0399878405850946,-0.0056034373119473,-0.012775944545865,-0.0003228881687391,-0.0024598240852355,0.0015115030109882,0.0054739713668823,XArbitraryCorrectedZVertical,0.0095551460773876,0.0312856918616505,-0.8154191467785342,0.5779461529916331,0.0517457872629165,0.0399771854281425,-0.9978598356246948,-16.26262855529785,19.51143646240234,-37.21810913085938,-1,1,1927223.0789945,stationary,2,2024-07-07T20:02:22.123+02:00,2024-07-04T15:01:54.251+02:00,22860,0.8407643,0.0,0.0,17658.85,20,18,2024-07-07T19:59:01.472+02:00,1927231.475475,0,162.9783,92.47108,1720373026.500783,0.0.0.0,10.214.108.195,iphone Senen,1720374095.618023,3,1720373026.475875,1,0.85,0,0.0
2024-07-07T20:02:34.228+02:00,41330,1720375354.000327,40.48039159605467,-4.071648507117906,771.8782,0.0,1.179583,-1.0,-1.0,3.368881204251435,4.740799137743577,-9999,1720375354.22287,-16.19407653808594,19.68136215209961,-37.39739990234375,45.41559219360352,45.1031494140625,20.43423461914062,1927234.473975292,0.0527191162109375,0.0381317138671875,-1.004653930664062,1927234.442772292,-0.0009970874525606,0.0033811493776738,-0.0025720810517668,1927234.474209292,7.77972412109375,17.37826538085938,-144.9386291503906,1927234.446517292,-1.90730858410667,0.051526311347113,-0.0402244473056288,0.0002213175466749,0.0026094496715813,-0.0011880887905135,-0.0026641711592674,-0.0005712285637855,-0.0062548518180847,XArbitraryCorrectedZVertical,0.0093697665871936,0.0313003354599522,-0.8154000022258316,0.5779752439628552,0.0514618530869483,0.0402135998010635,-0.9978650212287904,-16.40758323669434,19.77325820922852,-37.07911682128906,-1,1,1927223.0789945,stationary,2,2024-07-07T20:02:22.123+02:00,2024-07-04T15:01:54.251+02:00,22860,0.8407643,0.0,0.0,17658.85,20,18,2024-07-07T19:59:01.472+02:00,1927231.475475,0,162.9783,92.47108,1720373026.500783,0.0.0.0,10.214.108.195,iphone Senen,1720374095.618023,3,1720373026.475875,1,0.85,0,0.0
2024-07-07T20:02:34.288+02:00,41331,1720375354.000327,40.48039159605467,-4.071648507117906,771.8782,0.0,1.179583,-1.0,-1.0,3.368881204251435,4.740799137743577,-9999,1720375354.28279,-16.33697128295898,19.646240234375,-37.43955993652344,45.40270614624023,45.09026336669922,20.43423080444336,1927234.533883292,0.0524749755859375,0.042083740234375,-0.993194580078125,1927234.502680292,0.0007749798824079,0.018476478755474,0.0019371833186596,1927234.534734292,7.62310791015625,17.11508178710938,-144.6304779052734,1927234.506425292,-1.906986773153192,0.0521944745681878,-0.0400027065871896,-0.0003193227457813,0.0189894959330558,0.0016642555128782,0.0017498172819614,-0.0009905360639095,0.0006621479988098,XArbitraryCorrectedZVertical,0.0097012954430955,0.0314046488574153,-0.8153039680636437,0.5780996525303664,0.052129041403532,0.0399920381605625,-0.9978392720222472,-16.2160758972168,19.70021820068359,-36.90425109863281,-1,1,1927223.0789945,stationary,2,2024-07-07T20:02:22.123+02:00,2024-07-04T15:01:54.251+02:00,22860,0.8407643,0.0,0.0,17658.85,20,18,2024-07-07T19:59:01.472+02:00,1927231.475475,0,162.9783,92.47108,1720373026.500783,0.0.0.0,10.214.108.195,iphone Senen,1720374095.618023,3,1720373026.475875,1,0.85,0,0.0
2024-07-07T20:02:34.348+02:00,41332,1720375354.000327,40.48039159605467,-4.071648507117906,771.8782,0.0,1.179583,-1.0,-1.0,3.368881204251435,4.740799137743577,-9999,1720375354.342776,-16.33755302429199,19.66236877441406,-37.19070434570312,45.40723419189453,45.09479141235352,20.43422889709473,1927234.593790292,0.051788330078125,0.0393218994140625,-1.001419067382812,1927234.562588292,-0.0027662254869937,0.0203159246593713,-0.0005091963685117,1927234.595254292,7.370132446289062,17.2310791015625,-144.6116638183594,1927234.566332292,-1.907039830467717,0.0535129416731493,-0.0400446733872857,-0.0012857282999902,0.0229482613503933,-0.0027070872019976,-0.0021138824522495,0.0027364529669284,0.0011249184608459,XArbitraryCorrectedZVertical,0.010227465124381,0.0318025685072905,-0.8153127076976304,0.5780564655553336,0.0534445270895957,0.040033970028162,-0.997767984867096,-16.2524585723877,19.6646614074707,-37.14076232910156,-1,1,1927223.0789945,stationary,2,2024-07-07T20:02:22.123+02:00,2024-07-04T15:01:54.251+02:00,22860,0.8407643,0.0,0.0,17658.85,20,18,2024-07-07T19:59:01.472+02:00,1927231.475475,0,162.9783,92.47108,1720373026.500783,0.0.0.0,10.214.108.195,iphone Senen,1720374095.618023,3,1720373026.475875,1,0.85,0,0.0
2024-07-07T20:02:34.407+02:00,41333,1720375354.000327,40.48039159605467,-4.071648507117906,771.8782,0.0,1.179583,-1.0,-1.0,3.368881204251435,4.740799137743577,-9999,1720375354.402621,-16.22671699523926,19.5205192565918,-37.13967895507812,45.4337158203125,45.12127304077148,20.43422508239746,1927234.653698292,0.0564422607421875,0.039215087890625,-0.99688720703125,1927234.622496292,0.0002042644482571,0.008274707943201,-0.0034384073223918,1927234.655777292,7.512588500976562,17.25094604492188,-144.8603973388672,1927234.626240292,-1.907441384889912,0.0545028179628,-0.0400656763566654,0.0020640646107494,0.0120232999324798,-0.0028502801433205,0.0012015029788017,-0.0008856058120727,-0.0039799809455871,XArbitraryCorrectedZVertical,0.0106313564841962,0.032095087518449,-0.8154235891110528,0.5778766335975961,0.0544321201741695,0.0400549583137035,-0.9977137446403505,-16.39639663696289,19.59650039672852,-37.13827514648438,-1,1,1927223.0789945,stationary,2,2024-07-07T20:02:22.123+02:00,2024-07-04T15:01:54.251+02:00,22860,0.8407643,0.0,0.0,17658.85,20,18,2024-07-07T19:59:01.472+02:00,1927231.475475,0,162.9783,92.47108,1720373026.500783,0.0.0.0,10.214.108.195,iphone Senen,1720374095.618023,3,1720373026.475875,1,0.85,0,0.0
2024-07-07T20:02:34.467+02:00,41334,1720375354.000327,40.48039159605467,-4.071648507117906,771.8782,0.0,1.179583,-1.0,-1.0,3.368881204251435,4.740799137743577,-9999,1720375354.462591,-16.37261199951172,19.71272659301758,-37.27426147460938,45.44036102294922,45.1279182434082,20.43422317504883,1927234.713606292,0.0551605224609375,0.0419921875,-0.999237060546875,1927234.682404292,-0.0020042951218783,-0.0094414390623569,0.0028077706228941,1927234.716300292,7.768341064453125,17.16490173339844,-144.9254760742188,1927234.686148292,-1.907720761443761,0.0544878896620597,-0.0400668566194269,-0.0050388653762638,-0.0068173808977007,0.0017507479060441,0.0004839748144149,0.0004712454974651,0.0048403739929199,XArbitraryCorrectedZVertical,0.0106294109693333,0.0320897704003492,-0.8155043840394938,0.57776294874536,0.0544172227382659,0.0400561355054378,-0.9977145195007324,-16.40717506408691,19.69639587402344,-37.10699462890625,-1,1,1927223.0789945,stationary,2,2024-07-07T20:02:22.123+02:00,2024-07-04T15:01:54.251+02:00,22860,0.8407643,0.0,0.0,17658.85,20,18,2024-07-07T19:59:01.472+02:00,1927231.475475,0,162.9783,92.47108,1720373026.500783,0.0.0.0,10.214.108.195,iphone Senen,1720374095.618023,3,1720373026.475875,1,0.85,0,0.0
2024-07-07T20:02:34.527+02:00,41335,1720375354.000327,40.48039159605467,-4.071648507117906,771.8782,0.0,1.179583,-1.0,-1.0,3.368881204251435,4.740799137743577,-9999,1720375354.522459,-16.25229263305664,19.53654479980469,-37.31263732910156,45.43753814697266,45.12509536743164,20.4342212677002,1927234.773514292,0.052032470703125,0.038818359375,-1.000442504882812,1927234.742312292,-0.0016666061710566,-0.0248345099389553,0.0005222458858042,1927234.746562292,7.438735961914062,17.21832275390625,-144.5531768798828,1927234.746056292,-1.907624653250028,0.0534906929785393,-0.0401678345893991,0.0005843806429766,-0.0221529193222522,0.0022429989185184,0.0012197345495224,0.0002787932753562,-0.0017169117927551,XArbitraryCorrectedZVertical,0.010192052901008,0.0318433264863251,-0.8154817850514064,0.5778164419978794,0.053422063589096,0.0401570349931716,-0.9977642297744752,-16.46796989440918,19.66718673706055,-37.08201599121094,-1,1,1927223.0789945,stationary,2,2024-07-07T20:02:22.123+02:00,2024-07-04T15:01:54.251+02:00,22860,0.8407643,0.0,0.0,17658.85,20,18,2024-07-07T19:59:01.472+02:00,1927231.475475,0,162.9783,92.47108,1720373026.500783,0.0.0.0,10.214.108.195,iphone Senen,1720374095.618023,3,1720373026.475875,1,0.85,0,0.0
2024-07-07T20:02:34.587+02:00,41336,1720375354.000327,40.48039159605467,-4.071648507117906,771.8782,0.0,1.179583,-1.0,-1.0,3.368881204251435,4.740799137743577,-9999,1720375354.582279,-16.42280960083008,19.58390426635742,-37.09574890136719,45.45413970947266,45.14169692993164,20.4342212677002,1927234.833422292,0.0496826171875,0.041259765625,-0.9954681396484376,1927234.802220292,0.0008309062686748,-0.0261772759258747,-0.0004910869174636,1927234.807087292,7.658966064453125,17.11073303222656,-144.6976928710938,1927234.805964292,-1.907785823885955,0.0519006558054525,-0.0401535350504567,0.0022257121745496,-0.0268026981502771,-0.0016953307203948,0.0017534010112285,-0.0011717602610588,-0.0025177001953125,XArbitraryCorrectedZVertical,0.0095503912035576,0.0313773450784064,-0.8155362141165957,0.5777761475858004,0.0518355444073677,0.0401427447795867,-0.9978485107421876,-16.44293594360352,19.53815841674805,-37.17929077148438,-1,1,1927223.0789945,stationary,2,2024-07-07T20:02:22.123+02:00,2024-07-04T15:01:54.251+02:00,22860,0.8407643,0.0,0.0,17658.85,20,18,2024-07-07T19:59:01.472+02:00,1927231.475475,0,162.9783,92.47108,1720373026.500783,0.0.0.0,10.214.108.195,iphone Senen,1720374095.618023,3,1720373026.475875,1,0.85,0,0.0
2024-07-07T20:02:34.647+02:00,41337,1720375354.000327,40.48039159605467,-4.071648507117906,771.8782,0.0,1.179583,-1.0,-1.0,3.368881204251435,4.740799137743577,-9999,1720375354.642193,-16.25102996826172,19.39375305175781,-37.08161926269531,45.44939422607422,45.1369514465332,20.43421936035156,1927234.893330875,0.05078125,0.040374755859375,-1.005645751953125,1927234.862127292,-0.0060464409179985,-0.0207324419170618,0.0037872814573347,1927234.867609292,7.637100219726562,17.28364562988281,-144.7303771972656,1927234.865872292,-1.907909903157675,0.0505295118319087,-0.0402050143997424,-0.0057818684726953,-0.0188404954969883,-0.0005042494740337,-0.0003572553396224,7.379800081253052e-05,0.0041421651840209,XArbitraryCorrectedZVertical,0.0089783129272921,0.0310016520934825,-0.8155783494815164,0.5777459986260026,0.0504671968519687,0.0401941835880279,-0.997916579246521,-16.34332656860352,19.57486343383789,-37.1741943359375,-1,1,1927223.0789945,stationary,2,2024-07-07T20:02:22.123+02:00,2024-07-04T15:01:54.251+02:00,22860,0.8407643,0.0,0.0,17658.85,20,18,2024-07-07T19:59:01.472+02:00,1927231.475475,0,162.9783,92.47108,1720373026.500783,0.0.0.0,10.214.108.195,iphone Senen,1720374095.618023,3,1720373026.475875,1,0.85,0,0.0
2024-07-07T20:02:34.707+02:00,41338,1720375354.000327,40.48039159605467,-4.071648507117906,771.8782,0.0,1.179583,-1.0,-1.0,3.368881204251435,4.740799137743577,-9999,1720375354.702138,-16.29766654968262,19.42437744140625,-37.22433471679688,45.45340728759766,45.14096450805664,20.43421745300293,1927234.953238875,0.0471038818359375,0.0390167236328125,-0.9914093017578124,1927234.922035875,0.0060546966269612,-0.0019238675013184,0.0016788567882031,1927234.928133875,7.80499267578125,16.90811157226562,-144.6762847900391,1927234.925780875,-1.907903560783007,0.0500936045984082,-0.0401694023616459,0.0047144661657512,0.0020570552442222,0.0004578517982736,0.0013746693730354,-0.0005009733140468,-0.005203366279602,XArbitraryCorrectedZVertical,0.0088107603032325,0.0308612465580324,-0.8155784774159583,0.5777558427234873,0.050032265484333,0.040158599615097,-0.9979398846626282,-16.29354095458984,19.293701171875,-37.2381591796875,-1,1,1927223.0789945,stationary,2,2024-07-07T20:02:22.123+02:00,2024-07-04T15:01:54.251+02:00,22860,0.8407643,0.0,0.0,17658.85,20,18,2024-07-07T19:59:01.472+02:00,1927231.475475,0,162.9783,92.47108,1720373026.500783,0.0.0.0,10.214.108.195,iphone Senen,1720374095.618023,3,1720373026.475875,1,0.85,0,0.0
2024-07-07T20:02:34.767+02:00,41339,1720375354.000327,40.48039159605467,-4.071648507117906,771.8782,0.0,1.179583,-1.0,-1.0,3.368881204251435,4.740799137743577,-9999,1720375354.761999,-16.09255981445312,19.41875839233398,-37.25872802734375,45.46289825439453,45.15045547485352,20.4342155456543,1927235.013145875,0.0499267578125,0.040924072265625,-1.003128051757812,1927234.981943875,-0.0051790494471788,0.013708621263504,0.0001203748834086,1927234.988658875,7.628768920898438,17.12528991699219,-144.5736694335938,1927234.985688875,-1.908011319018403,0.0507472754298478,-0.0402017438835135,-0.0019176778150722,0.0149798095226287,-0.0039594043046236,-0.0045113377273082,0.0008400082588195,0.0024222731590271,XArbitraryCorrectedZVertical,0.0090696378290735,0.0310627665591459,-0.81560665034715,0.5777012425266017,0.0506845116615295,0.0401909165084362,-0.9979056715965272,-16.35113334655762,19.62835311889648,-37.23976135253906,-1,1,1927223.0789945,stationary,2,2024-07-07T20:02:22.123+02:00,2024-07-04T15:01:54.251+02:00,22860,0.8407643,0.0,0.0,17658.85,20,18,2024-07-07T19:59:01.472+02:00,1927231.475475,0,162.9783,92.47108,1720373026.500783,0.0.0.0,10.214.108.195,iphone Senen,1720374095.618023,3,1720373026.475875,1,0.85,0,0.0
2024-07-07T20:02:34.827+02:00,41340,1720375354.000327,40.48039159605467,-4.071648507117906,771.8782,0.0,1.179583,-1.0,-1.0,3.368881204251435,4.740799137743577,-9999,1720375354.82196,-16.1611156463623,19.54880905151367,-37.28439331054688,45.45985794067383,45.14741516113281,20.4342155456543,1927235.073053875,0.0558319091796875,0.037139892578125,-0.999847412109375,1927235.041851875,0.001817074837163,0.0233777612447738,0.0006865629111416,1927235.049183875,7.8212890625,17.29212951660156,-144.5877685546875,1927235.045595875,-1.908149277377789,0.0519283901765962,-0.0402726481079036,-0.0018282071687281,0.0244629085063934,0.0002346922410652,0.0020464099943637,0.0004945024847984,-0.0018982887268066,XArbitraryCorrectedZVertical,0.0095329542579258,0.0314321613278337,-0.8156409650626094,0.5776254551051538,0.0518629699945449,0.0402617640793323,-0.9978423118591307,-16.22136497497559,19.61523818969727,-37.23098754882812,-1,1,1927223.0789945,stationary,2,2024-07-07T20:02:22.123+02:00,2024-07-04T15:01:54.251+02:00,22860,0.8407643,0.0,0.0,17658.85,20,18,2024-07-07T19:59:01.472+02:00,1927231.475475,0,162.9783,92.47108,1720373026.500783,0.0.0.0,10.214.108.195,iphone Senen,1720374095.618023,3,1720373026.475875,1,0.85,0,0.0
2024-07-07T20:02:34.887+02:00,41341,1720375354.000327,40.48039159605467,-4.071648507117906,771.8782,0.0,1.179583,-1.0,-1.0,3.368881204251435,4.740799137743577,-9999,1720375354.881884,-16.08962440490723,19.40944290161133,-36.93106079101562,45.45234298706055,45.13990020751953,20.4342155456543,1927235.132961875,0.0509490966796875,0.0418701171875,-0.9933013916015624,1927235.101759875,0.000695351336617,0.0147445909678936,0.0045931539498269,1927235.109704875,7.890335083007812,17.00196838378906,-144.6617279052734,1927235.105503875,-1.907914474261675,0.0530013800563595,-0.0401757769225438,0.0001281381992157,0.0169824045151472,0.0003839916316792,-0.0009165331721305,-0.0002937167882919,-0.0004094839096069,XArbitraryCorrectedZVertical,0.0099948402604102,0.031703749377496,-0.8155679453319915,0.5777057606560173,0.052933819591999,0.0401649698615074,-0.997789978981018,-16.2413501739502,19.61540222167969,-37.204345703125,-1,1,1927223.0789945,stationary,2,2024-07-07T20:02:22.123+02:00,2024-07-04T15:01:54.251+02:00,22860,0.8407643,0.0,0.0,17658.85,20,18,2024-07-07T19:59:01.472+02:00,1927231.475475,0,162.9783,92.47108,1720373026.500783,0.0.0.0,10.214.108.195,iphone Senen,1720374095.618023,3,1720373026.475875,1,0.85,0,0.0
2024-07-07T20:02:34.947+02:00,41342,1720375354.000327,40.48039159605467,-4.071648507117906,771.8782,0.0,1.179583,-1.0,-1.0,3.368881204251435,4.740799137743577,-9999,1720375354.94171,-16.12301254272461,19.46164321899414,-37.36085510253906,45.44921112060547,45.13676834106445,20.43421363830566,1927235.192869875,0.054473876953125,0.0391082763671875,-1.003738403320312,1927235.161667875,-0.0013419669121503,-0.0007225155713967,0.0010077401529997,1927235.170225875,7.819915771484375,17.0428466796875,-144.8468780517578,1927235.165411875,-1.907803296172562,0.0534778800229419,-0.0402663030026735,-0.0016998127102851,0.0024331170134246,-0.0039453883655369,0.000347726047039,0.0017215460538864,-0.0022084712982177,XArbitraryCorrectedZVertical,0.0101611877589402,0.0318788379604045,-0.8155333912283308,0.5777420506774389,0.0534090660512447,0.0402554236352443,-0.9977609515190125,-15.96372222900391,19.48404693603516,-37.08177185058594,-1,1,1927223.0789945,stationary,2,2024-07-07T20:02:22.123+02:00,2024-07-04T15:01:54.251+02:00,22860,0.8407643,0.0,0.0,17658.85,20,18,2024-07-07T19:59:01.472+02:00,1927231.475475,0,162.9783,92.47108,1720373026.500783,0.0.0.0,10.214.108.195,iphone Senen,1720374095.618023,3,1720373026.475875,1,0.85,0,0.0
2024-07-07T20:02:35.007+02:00,41343,1720375354.000327,40.48039159605467,-4.071648507117906,771.8782,0.0,1.179583,-1.0,-1.0,3.368881204251435,4.740799137743577,-9999,1720375355.001783,-16.11336898803711,19.49755859375,-37.38943481445312,45.45276260375977,45.14031982421875,20.43421363830566,1927235.252777875,0.05377197265625,0.0400238037109375,-0.998565673828125,1927235.221575875,-0.0006340986583381,-0.0092225270345807,0.0026836674660444,1927235.230750875,7.714645385742188,16.91531372070312,-144.9698791503906,1927235.225319875,-1.907837117196259,0.0531023945218966,-0.0401711896791043,0.0019365977495908,-0.0110505223274231,-0.000771858729422,0.0017597675323486,0.0002754442393779,0.0029117465019226,XArbitraryCorrectedZVertical,0.0100361274103506,0.0317314441015359,-0.8155451277527151,0.5777359357611057,0.0530346222221851,0.0401603877544403,-0.9977847933769226,-16.09381484985352,19.53774642944336,-37.3585205078125,-1,1,1927223.0789945,stationary,2,2024-07-07T20:02:22.123+02:00,2024-07-04T15:01:54.251+02:00,22860,0.8407643,0.0,0.0,17658.85,20,18,2024-07-07T19:59:01.472+02:00,1927231.475475,0,162.9783,92.47108,1720373026.500783,0.0.0.0,10.214.108.195,iphone Senen,1720374095.618023,3,1720373026.475875,1,0.85,0,0.0
2024-07-07T20:02:35.067+02:00,41344,1720375355.000336,40.48039159605467,-4.071648507117906,771.8782,0.0,1.17969,-1.0,-1.0,3.368419742146779,4.741127025666436,-9999,1720375355.061772,-16.33246803283691,19.72948455810547,-37.24583435058594,45.44705200195312,45.13460922241211,20.43423461914062,1927235.312685875,0.05084228515625,0.040557861328125,-1.000518798828125,1927235.281482875,0.000213319202885,-0.0153754940256476,0.0007590008899569,1927235.291276875,7.662872314453125,17.38493347167969,-144.7398376464844,1927235.285227875,-1.907931541658851,0.0524255098904951,-0.0401855026528778,-0.0022908051032572,-0.0131269181147217,0.0004168006707914,0.0009245760738849,0.0019548684358596,-0.0025463104248046,XArbitraryCorrectedZVertical,0.0097574626706998,0.031541284856172,-0.815575728526773,0.5777078203060155,0.0523591935634613,0.0401746891438961,-0.9978199005126952,-16.31245803833008,19.66519165039062,-37.66310119628906,-1,1,1927223.0789945,stationary,2,2024-07-07T20:02:22.123+02:00,2024-07-04T15:01:54.251+02:00,22860,0.8407643,0.0,0.0,17658.85,20,18,2024-07-07T19:59:01.472+02:00,1927232.540752,0,162.9783,92.4711,1720373026.500783,0.0.0.0,10.214.108.195,iphone Senen,1720374095.618023,3,1720373026.475875,1,0.85,0,0.0
2024-07-07T20:02:35.126+02:00,41345,1720375355.000336,40.48039159605467,-4.071648507117906,771.8782,0.0,1.17969,-1.0,-1.0,3.368419742146779,4.741127025666436,-9999,1720375355.121567,-16.25049591064453,19.56380844116211,-37.26583862304688,45.43099212646484,45.11854934692383,20.43423652648926,1927235.372593875,0.0515289306640625,0.0395050048828125,-0.997955322265625,1927235.341390875,0.0027505126781761,-0.0073268888518214,0.001005875878036,1927235.351801875,7.566665649414062,17.27886962890625,-144.6874389648438,1927235.345135875,-1.907492661980266,0.0519568686723279,-0.0401005332333696,0.0029342612251639,-0.0045728217810392,-0.0005656093126162,-0.0013850778341293,-0.0002795681357383,-0.003723919391632,XArbitraryCorrectedZVertical,0.0095840493625949,0.0313733935122095,-0.8154512748526065,0.5778956394628859,0.0518917441368103,0.0400897860527038,-0.9978477358818054,-16.17233657836914,19.6934928894043,-37.38790893554688,-1,1,1927223.0789945,stationary,2,2024-07-07T20:02:22.123+02:00,2024-07-04T15:01:54.251+02:00,22860,0.8407643,0.0,0.0,17658.85,20,18,2024-07-07T19:59:01.472+02:00,1927232.540752,0,162.9783,92.4711,1720373026.500783,0.0.0.0,10.214.108.195,iphone Senen,1720374095.618023,3,1720373026.475875,1,0.85,0,0.0
2024-07-07T20:02:35.186+02:00,41346,1720375355.000336,40.48039159605467,-4.071648507117906,771.8782,0.0,1.17969,-1.0,-1.0,3.368419742146779,4.741127025666436,-9999,1720375355.181648,-16.20854568481445,19.58819198608398,-37.36927795410156,45.43381881713867,45.12137603759766,20.43423652648926,1927235.432500875,0.0514678955078125,0.041229248046875,-0.999786376953125,1927235.401298875,5.77905957470648e-05,0.0017651431262493,-0.0022722089197486,1927235.412325875,7.54931640625,17.19985961914062,-144.7258911132812,1927235.405043875,-1.907523513385305,0.0519518329086983,-0.0400900409092971,-0.0012478927383199,0.0047636572271585,-0.0001974230981431,-0.0015936978161334,0.0004328228533267,-0.0003663301467895,XArbitraryCorrectedZVertical,0.0095855206029112,0.0313675182505573,-0.8154601899860272,0.5778831600462316,0.0518867410719394,0.0400793030858039,-0.997848391532898,-16.19892883300781,19.58169937133789,-37.06771850585938,-1,1,1927223.0789945,stationary,2,2024-07-07T20:02:22.123+02:00,2024-07-04T15:01:54.251+02:00,22860,0.8407643,0.0,0.0,17658.85,20,18,2024-07-07T19:59:01.472+02:00,1927232.540752,0,162.9783,92.4711,1720373026.500783,0.0.0.0,10.214.108.195,iphone Senen,1720374095.618023,3,1720373026.475875,1,0.85,0,0.0
2024-07-07T20:02:35.246+02:00,41347,1720375355.000336,40.48039159605467,-4.071648507117906,771.8782,0.0,1.17969,-1.0,-1.0,3.368419742146779,4.741127025666436,-9999,1720375355.241293,-16.19810676574707,19.64121246337891,-37.39643859863281,45.41638946533203,45.10394668579102,20.43423652648926,1927235.492408875,0.0551910400390625,0.038604736328125,-0.996337890625,1927235.461206875,0.0023278691805899,0.0132090123370289,0.0033598439767956,1927235.472851875,7.689300537109375,17.43524169921875,-144.8050231933594,1927235.464950875,-1.907398857814341,0.0525065918149423,-0.0400781353103556,0.0001596436195541,0.0142277088016271,0.0010023007635027,0.0018505230545997,-0.0001503750681877,-0.0041179060935974,XArbitraryCorrectedZVertical,0.0098131911102432,0.0315235702744307,-0.8154214963644894,0.5779255028004732,0.0524403229355812,0.040067408233881,-0.99781996011734,-16.20778465270996,19.66116714477539,-37.27154541015625,-1,1,1927223.0789945,stationary,2,2024-07-07T20:02:22.123+02:00,2024-07-04T15:01:54.251+02:00,22860,0.8407643,0.0,0.0,17658.85,20,18,2024-07-07T19:59:01.472+02:00,1927232.540752,0,162.9783,92.4711,1720373026.500783,0.0.0.0,10.214.108.195,iphone Senen,1720374095.618023,3,1720373026.475875,1,0.85,0,0.0
2024-07-07T20:02:35.306+02:00,41348,1720375355.000336,40.48039159605467,-4.071648507117906,771.8782,0.0,1.17969,-1.0,-1.0,3.368419742146779,4.741127025666436,-9999,1720375355.301311,-16.21343231201172,19.59067153930664,-37.18154907226562,45.41695022583008,45.10450744628906,20.43423652648926,1927235.552316875,0.0509490966796875,0.0417938232421875,-1.000411987304688,1927235.521114875,-0.0031132353469729,0.0093508912250399,-0.0023832628503441,1927235.533379875,7.944366455078125,17.03799438476562,-144.906005859375,1927235.524858875,-1.90721764820613,0.05330249441745,-0.0400932080268448,-0.0007890600245445,0.0112070320174098,-0.0014211625093594,-0.0014612935483455,-0.0006842352449893,0.0018208622932434,XArbitraryCorrectedZVertical,0.0101304466240143,0.0317606113722273,-0.8153651691707665,0.5779866120635992,0.0532344430685043,0.0400824658572673,-0.9977772831916808,-16.31093215942383,19.57848739624023,-37.08619689941406,-1,1,1927223.0789945,stationary,2,2024-07-07T20:02:22.123+02:00,2024-07-04T15:01:54.251+02:00,22860,0.8407643,0.0,0.0,17658.85,20,18,2024-07-07T19:59:01.472+02:00,1927232.540752,0,162.9783,92.4711,1720373026.500783,0.0.0.0,10.214.108.195,iphone Senen,1720374095.618023,3,1720373026.475875,1,0.85,0,0.0
2024-07-07T20:02:35.366+02:00,41349,1720375355.000336,40.48039159605467,-4.071648507117906,771.8782,0.0,1.17969,-1.0,-1.0,3.368419742146779,4.741127025666436,-9999,1720375355.361231,-16.14069557189941,19.6513557434082,-37.22886657714844,45.41724014282227,45.10479736328125,20.43423461914062,1927235.612224875,0.0569610595703125,0.0393829345703125,-0.9958953857421876,1927235.581022875,0.001062867580913,0.0014671353856101,-0.0023505059070885,1927235.593905875,7.793228149414062,17.28202819824219,-144.5994720458984,1927235.584766875,-1.907322990584732,0.0537968372169439,-0.0400442793479515,0.0008386229164898,0.0063824192620813,-0.0040386458858847,-0.0009475573897361,0.0007837228477001,0.0013386011123657,XArbitraryCorrectedZVertical,0.0103478232881784,0.0318829958397042,-0.8153930917076168,0.5779365713717944,0.0537277869880199,0.0400335788726806,-0.9977527856826782,-16.15121269226074,19.82488632202148,-37.35990905761719,-1,1,1927223.0789945,stationary,2,2024-07-07T20:02:22.123+02:00,2024-07-04T15:01:54.251+02:00,22860,0.8407643,0.0,0.0,17658.85,20,18,2024-07-07T19:59:01.472+02:00,1927232.540752,0,162.9783,92.4711,1720373026.500783,0.0.0.0,10.214.108.195,iphone Senen,1720374095.618023,3,1720373026.475875,1,0.85,0,0.0
2024-07-07T20:02:35.426+02:00,41350,1720375355.000336,40.48039159605467,-4.071648507117906,771.8782,0.0,1.17969,-1.0,-1.0,3.368419742146779,4.741127025666436,-9999,1720375355.421091,-16.26849937438965,19.541015625,-37.24008178710938,45.42485046386719,45.11240768432617,20.43423271179199,1927235.672132875,0.0519561767578125,0.0400848388671875,-0.998138427734375,1927235.640930875,-0.0019046928500756,0.0010532801970839,0.0052528190426528,1927235.654433875,7.608779907226562,17.0701904296875,-144.7403106689453,1927235.644674875,-1.907396180804179,0.0538706252523611,-0.0400356563082216,-0.0034187505953013,-2.235616557300091e-05,0.0020824486855417,0.002442542463541,-0.0001537092030048,0.0004805326461791,XArbitraryCorrectedZVertical,0.0103815689647205,0.0319004252054133,-0.8154138644043117,0.5779057134025639,0.0538014248013496,0.0400249622762203,-0.9977491497993468,-16.29439163208008,19.50743103027344,-37.15919494628906,-1,1,1927223.0789945,stationary,2,2024-07-07T20:02:22.123+02:00,2024-07-04T15:01:54.251+02:00,22860,0.8407643,0.0,0.0,17658.85,20,18,2024-07-07T19:59:01.472+02:00,1927232.540752,0,162.9783,92.4711,1720373026.500783,0.0.0.0,10.214.108.195,iphone Senen,1720374095.618023,3,1720373026.475875,1,0.85,0,0.0
2024-07-07T20:02:35.486+02:00,41351,1720375355.000336,40.48039159605467,-4.071648507117906,771.8782,0.0,1.17969,-1.0,-1.0,3.368419742146779,4.741127025666436,-9999,1720375355.481035,-16.19317245483398,19.81839752197266,-37.39884948730469,45.41242980957031,45.0999870300293,20.43423080444336,1927235.732040875,0.05242919921875,0.039703369140625,-0.998382568359375,1927235.700837875,0.0007145261042751,-0.0027481159195303,0.0036946034524589,1927235.714959875,7.6829833984375,17.20167541503906,-145.0039978027344,1927235.704582875,-1.90722883838349,0.0539264206325136,-0.0400877722091219,0.0011834792094305,-0.0022298113908618,-0.0001192249474115,-0.0023890137672424,-0.001334935426712,-0.0052313208580017,XArbitraryCorrectedZVertical,0.0103865643394968,0.0319386491171463,-0.8153651887579378,0.5779721237221321,0.0538569837808609,0.0400770343840122,-0.997744083404541,-16.22962951660156,19.58006286621094,-37.25361633300781,-1,1,1927223.0789945,stationary,2,2024-07-07T20:02:22.123+02:00,2024-07-04T15:01:54.251+02:00,22860,0.8407643,0.0,0.0,17658.85,20,18,2024-07-07T19:59:01.472+02:00,1927232.540752,0,162.9783,92.4711,1720373026.500783,0.0.0.0,10.214.108.195,iphone Senen,1720374095.618023,3,1720373026.475875,1,0.85,0,0.0
2024-07-07T20:02:35.546+02:00,41352,1720375355.000336,40.48039159605467,-4.071648507117906,771.8782,0.0,1.17969,-1.0,-1.0,3.368419742146779,4.741127025666436,-9999,1720375355.540845,-16.31230163574219,19.63462066650391,-37.12734985351562,45.41484832763672,45.1024055480957,20.43422889709473,1927235.791948875,0.0557708740234375,0.039520263671875,-0.997406005859375,1927235.760745875,-0.0030224213842302,-0.0055534895509481,-0.0028858012519776,1927235.775483875,7.584320068359375,17.26356506347656,-144.8005218505859,1927235.764490875,-1.907176781492315,0.0538085599059984,-0.0400308836067756,-0.0006168978288769,-0.0026421472430229,-0.0043133604340255,-0.0011729076504707,-0.00025574862957,0.0041003823280334,XArbitraryCorrectedZVertical,0.0103541477688485,0.0318816825905047,-0.815350790628731,0.577996248940581,0.0537395104765892,0.0400201939046382,-0.9977527260780334,-16.03295516967773,19.62726211547852,-37.2513427734375,-1,1,1927223.0789945,stationary,2,2024-07-07T20:02:22.123+02:00,2024-07-04T15:01:54.251+02:00,22860,0.8407643,0.0,0.0,17658.85,20,18,2024-07-07T19:59:01.472+02:00,1927232.540752,0,162.9783,92.4711,1720373026.500783,0.0.0.0,10.214.108.195,iphone Senen,1720374095.618023,3,1720373026.475875,1,0.85,0,0.0
2024-07-07T20:02:35.606+02:00,41353,1720375355.000336,40.48039159605467,-4.071648507117906,771.8782,0.0,1.17969,-1.0,-1.0,3.368419742146779,4.741127025666436,-9999,1720375355.600837,-16.19830131530762,19.68649673461914,-37.18183898925781,45.41261291503906,45.10017013549805,20.43422889709473,1927235.851855875,0.0559539794921875,0.0400390625,-0.9984588623046876,1927235.820653875,-0.000171507577761,-0.0131911691278219,0.0025726135354489,1927235.836006875,8.045120239257812,16.97901916503906,-144.7304229736328,1927235.824398875,-1.907340677262106,0.0533309656919045,-0.040119591296308,-0.0011717765592038,-0.0122661078348755,0.0005517459358088,0.0019588395953178,0.0002812258899211,-0.0026983022689819,XArbitraryCorrectedZVertical,0.0101363745255403,0.031778964757542,-0.8154005532479204,0.5779354997173672,0.0532627962529659,0.0401088297367095,-0.9977747201919556,-16.27301025390625,19.60736465454102,-37.48623657226562,-1,1,1927223.0789945,stationary,2,2024-07-07T20:02:22.123+02:00,2024-07-04T15:01:54.251+02:00,22860,0.8407643,0.0,0.0,17658.85,20,18,2024-07-07T19:59:01.472+02:00,1927232.540752,0,162.9783,92.4711,1720373026.500783,0.0.0.0,10.214.108.195,iphone Senen,1720374095.618023,3,1720373026.475875,1,0.85,0,0.0
2024-07-07T20:02:35.665+02:00,41354,1720375355.000336,40.48039159605467,-4.071648507117906,771.8782,0.0,1.17969,-1.0,-1.0,3.368419742146779,4.741127025666436,-9999,1720375355.660791,-16.22750091552734,19.72872543334961,-37.45484924316406,45.39935684204102,45.0869140625,20.43422698974609,1927235.911763625,0.049072265625,0.03961181640625,-0.993316650390625,1927235.880561625,6.045375630492344e-05,-0.0151794850826263,0.0058491006493568,1927235.896528625,7.68402099609375,17.25082397460938,-144.7637481689453,1927235.884305625,-1.907063418262161,0.0525627867564512,-0.0400241372709831,0.0007263074512593,-0.012726167216897,0.0046100551262497,0.000634666532278,-0.0008746236562728,0.0021069049835205,XArbitraryCorrectedZVertical,0.0098464404018543,0.0315194599931135,-0.8153243250242208,0.5780623395211472,0.0524965114891529,0.040013451129198,-0.9978191256523132,-16.24874687194824,19.64329147338867,-37.32150268554688,-1,1,1927223.0789945,stationary,2,2024-07-07T20:02:22.123+02:00,2024-07-04T15:01:54.251+02:00,22860,0.8407643,0.0,0.0,17658.85,20,18,2024-07-07T19:59:01.472+02:00,1927232.540752,0,162.9783,92.4711,1720373026.500783,0.0.0.0,10.214.108.195,iphone Senen,1720374095.618023,3,1720373026.475875,1,0.85,0,0.0
2024-07-07T20:02:35.726+02:00,41355,1720375355.000336,40.48039159605467,-4.071648507117906,771.8782,0.0,1.17969,-1.0,-1.0,3.368419742146779,4.741127025666436,-9999,1720375355.720668,-16.54211807250977,19.82247161865234,-37.41966247558594,45.40658569335938,45.09414291381836,20.43422698974609,1927235.971671625,0.0513916015625,0.04083251953125,-1.003402709960938,1927235.940469625,-0.0058408449403941,-0.0090630035847425,0.0008178567513823,1927235.957054625,7.27783203125,17.20315551757812,-145.1741333007812,1927235.944213625,-1.90692439840147,0.0519932522238374,-0.0401341432455678,-0.0042558349668979,-0.0091183129698038,-0.0029345899820327,-0.0008872598409652,0.0008312538266181,-0.0006906390190124,XArbitraryCorrectedZVertical,0.0095802387475485,0.0314003245056298,-0.8152868324098493,0.5781261159482042,0.0519279800355434,0.0401233695447444,-0.9978444576263428,-16.37149429321289,19.77302551269531,-37.34111022949219,-1,1,1927223.0789945,stationary,2,2024-07-07T20:02:22.123+02:00,2024-07-04T15:01:54.251+02:00,22860,0.8407643,0.0,0.0,17658.85,20,18,2024-07-07T19:59:01.472+02:00,1927232.540752,0,162.9783,92.4711,1720373026.500783,0.0.0.0,10.214.108.195,iphone Senen,1720374095.618023,3,1720373026.475875,1,0.85,0,0.0
2024-07-07T20:02:35.785+02:00,41356,1720375355.000336,40.48039159605467,-4.071648507117906,771.8782,0.0,1.17969,-1.0,-1.0,3.368419742146779,4.741127025666436,-9999,1720375355.780538,-16.29478645324707,19.72887420654297,-37.28675842285156,45.40450286865234,45.09206008911133,20.43422508239746,1927236.031579625,0.05462646484375,0.0406036376953125,-0.9961395263671876,1927236.000377625,0.0035108451265841,-0.0047127297148108,-3.089266829192638e-05,1927236.017579625,7.595626831054688,17.24298095703125,-144.7843627929688,1927236.004121625,-1.907107527627014,0.0517635692855019,-0.0400900952364796,-0.0001982116373255,0.000235115760006,-0.0017185739707201,0.0015238523483276,-0.0002691373229026,-0.0020502805709838,XArbitraryCorrectedZVertical,0.0095022300341216,0.0313151195925764,-0.8153408813591622,0.5780557397261805,0.0516988821327686,0.0400793589651584,-0.9978581666946412,-16.38448333740234,19.87713241577148,-37.35810852050781,-1,1,1927223.0789945,stationary,2,2024-07-07T20:02:22.123+02:00,2024-07-04T15:01:54.251+02:00,22860,0.8407643,0.0,0.0,17658.85,20,18,2024-07-07T19:59:01.472+02:00,1927232.540752,0,162.9783,92.4711,1720373026.500783,0.0.0.0,10.214.108.195,iphone Senen,1720374095.618023,3,1720373026.475875,1,0.85,0,0.0
2024-07-07T20:02:35.845+02:00,41357,1720375355.000336,40.48039159605467,-4.071648507117906,771.8782,0.0,1.17969,-1.0,-1.0,3.368419742146779,4.741127025666436,-9999,1720375355.840396,-16.22050285339355,19.78503799438477,-37.27354431152344,45.3929443359375,45.08050155639648,20.43422508239746,1927236.091487625,0.050811767578125,0.041290283203125,-0.9997711181640624,1927236.060285625,-4.500742215896025e-05,0.0075412732549011,0.0021526331547647,1927236.078102625,7.647048950195312,17.32504272460938,-144.7822875976562,1927236.064029625,-1.907004049589772,0.0520178953326342,-0.0400927719759732,0.0010379222221672,0.0091025335714221,0.0022611001040786,0.0021550841629505,-0.0004701763391494,-0.0003393292427062,XArbitraryCorrectedZVertical,0.0096035125038493,0.0313902141066105,-0.8153097542858653,0.5780938856137363,0.0519526563584804,0.0400820299983024,-0.9978448748588562,-16.31485176086426,19.61527252197266,-37.22329711914062,-1,1,1927223.0789945,stationary,2,2024-07-07T20:02:22.123+02:00,2024-07-04T15:01:54.251+02:00,22860,0.8407643,0.0,0.0,17658.85,20,18,2024-07-07T19:59:01.472+02:00,1927232.540752,0,162.9783,92.4711,1720373026.500783,0.0.0.0,10.214.108.195,iphone Senen,1720374095.618023,3,1720373026.475875,1,0.85,0,0.0
2024-07-07T20:02:35.905+02:00,41358,1720375355.000336,40.48039159605467,-4.071648507117906,771.8782,0.0,1.17969,-1.0,-1.0,3.368419742146779,4.741127025666436,-9999,1720375355.900379,-16.06723785400391,19.76173782348633,-37.2176513671875,45.37343978881836,45.06099700927734,20.43422508239746,1927236.151395625,0.0517120361328125,0.039825439453125,-1.000320434570312,1927236.120192625,0.0004154531343374,0.0134782586246728,0.0007840346079319,1927236.138624625,8.014556884765625,17.11865234375,-144.7890472412109,1927236.123937625,-1.906656776118199,0.052877993917946,-0.0401313894749538,0.0037874751724302,0.0142199071124196,0.000225001014769,-0.0033264718949794,-0.0002493634819984,-0.0017897486686706,XArbitraryCorrectedZVertical,0.0099374588000794,0.0316562761904379,-0.8152051466497786,0.5782212817757463,0.0528107993304729,0.0401206165552139,-0.9977982640266418,-16.28088188171387,19.79460906982422,-37.10710144042969,-1,1,1927223.0789945,stationary,2,2024-07-07T20:02:22.123+02:00,2024-07-04T15:01:54.251+02:00,22860,0.8407643,0.0,0.0,17658.85,20,18,2024-07-07T19:59:01.472+02:00,1927232.540752,0,162.9783,92.4711,1720373026.500783,0.0.0.0,10.214.108.195,iphone Senen,1720374095.618023,3,1720373026.475875,1,0.85,0,0.0
2024-07-07T20:02:35.965+02:00,41359,1720375355.000336,40.48039159605467,-4.071648507117906,771.8782,0.0,1.17969,-1.0,-1.0,3.368419742146779,4.741127025666436,-9999,1720375355.96036,-16.02764129638672,19.63240432739258,-37.42764282226562,45.37347412109375,45.06103134155273,20.43422508239746,1927236.211303625,0.05413818359375,0.04144287109375,-0.9998779296875,1927236.180100625,-0.0032032502349466,0.0041127195581793,-0.0023619574494659,1927236.199147625,7.798538208007812,17.07441711425781,-145.0775604248047,1927236.183845625,-1.906516097971633,0.0534105961106207,-0.0401011525535941,-0.0037117199972271,0.0056937970221042,-0.0019721067510545,0.0017725341022014,-0.0003869980573654,0.0018147826194763,XArbitraryCorrectedZVertical,0.0101610689451688,0.0317986568301363,-0.8151617965832619,0.5782705983185301,0.0533422864973545,0.0400904044508934,-0.9977712035179138,-15.89045238494873,19.4288215637207,-37.19000244140625,-1,1,1927223.0789945,stationary,2,2024-07-07T20:02:22.123+02:00,2024-07-04T15:01:54.251+02:00,22860,0.8407643,0.0,0.0,17658.85,20,18,2024-07-07T19:59:01.472+02:00,1927232.540752,0,162.9783,92.4711,1720373026.500783,0.0.0.0,10.214.108.195,iphone Senen,1720374095.618023,3,1720373026.475875,1,0.85,0,0.0
2024-07-07T20:02:36.025+02:00,41360,1720375355.000336,40.48039159605467,-4.071648507117906,771.8782,0.0,1.17969,-1.0,-1.0,3.368419742146779,4.741127025666436,-9999,1720375356.020243,-16.28040504455566,19.61584854125977,-37.1983642578125,45.35792541503906,45.04548263549805,20.43424606323242,1927236.271210625,0.0540618896484375,0.0393829345703125,-0.99810791015625,1927236.240008625,0.0013635384384542,-0.0066152922809123,0.0037979339249432,1927236.259670625,7.6048583984375,17.17521667480469,-144.5466003417969,1927236.243752625,-1.906320636764659,0.053222777433052,-0.0402099570117844,0.0019059577025473,-0.0080661131069064,0.002491403138265,0.0022958628833293,-0.0009382180869579,-0.0033828020095825,XArbitraryCorrectedZVertical,0.0100499020705922,0.0317896458937727,-0.8151061900347754,0.578351502340166,0.0531546548008918,0.0401991233229637,-0.9977768063545228,-16.21319961547852,19.78030776977539,-37.33323669433594,-1,1,1927223.0789945,stationary,2,2024-07-07T20:02:22.123+02:00,2024-07-04T15:01:54.251+02:00,22860,0.8407643,0.0,0.0,17658.85,20,18,2024-07-07T19:59:01.472+02:00,1927232.540752,0,162.9783,92.4711,1720373026.500783,0.0.0.0,10.214.108.195,iphone Senen,1720374095.618023,3,1720373026.475875,1,0.85,0,0.0
2024-07-07T20:02:36.086+02:00,41361,1720375356.000345,40.48039159605467,-4.071648507117906,771.8782,0.0,1.084966,-1.0,-1.0,3.368845794662104,4.740824300116626,-9999,1720375356.080108,-16.1161003112793,19.50672912597656,-37.30409240722656,45.34964752197266,45.03720474243164,20.43424797058105,1927236.331118625,0.0495452880859375,0.03961181640625,-1.000030517578125,1927236.299916625,-0.0019041601335629,-0.0214472357183694,0.0026951190084218,1927236.320194625,7.815826416015625,17.04544067382812,-144.8628692626953,1927236.303660625,-1.90609770322013,0.0524928878826097,-0.0401543566336909,-0.0041711097583174,-0.0179267339408397,0.0012298636138439,-0.001339990645647,-0.0012336187064647,0.0034481287002563,XArbitraryCorrectedZVertical,0.0097650165653398,0.0315570222465903,-0.8150453705490531,0.5784548766878366,0.052426490932703,0.0401435680687427,-0.9978175759315492,-16.1560173034668,19.53441619873047,-37.39369201660156,-1,1,1927223.0789945,stationary,2,2024-07-07T20:02:22.123+02:00,2024-07-04T15:01:54.251+02:00,22860,0.8407643,0.0,0.0,17658.85,20,18,2024-07-07T19:59:01.472+02:00,1927232.540752,0,162.9783,92.4711,1720373026.500783,0.0.0.0,10.214.108.195,iphone Senen,1720374095.618023,3,1720373026.475875,1,0.85,0,0.0
2024-07-07T20:02:36.145+02:00,41362,1720375356.000345,40.48039159605467,-4.071648507117906,771.8782,0.0,1.084966,-1.0,-1.0,3.368845794662104,4.740824300116626,-9999,1720375356.140038,-16.09134674072266,19.43745803833008,-36.9539794921875,45.35471343994141,45.04227066040039,20.43424415588379,1927236.391026625,0.0517120361328125,0.0398101806640625,-1.00128173828125,1927236.359824625,-0.0016096145845949,-0.0222043711692094,0.0006572681595571,1927236.380720625,7.887191772460938,16.90504455566406,-144.3944702148438,1927236.363568625,-1.906197040505568,0.051289239050304,-0.0402145649058217,-0.0005196429556235,-0.0203698631376028,-0.0033958880230784,-0.0012069232761859,-0.0005766153335571,-0.0008254051208496,XArbitraryCorrectedZVertical,0.0092586128560402,0.0312329472842981,-0.8150797810780547,0.578432282195118,0.0512253046035766,0.0402037277817726,-0.9978775382041932,-16.14829254150391,19.52980804443359,-37.34942626953125,-1,1,1927223.0789945,stationary,2,2024-07-07T20:02:22.123+02:00,2024-07-04T15:01:54.251+02:00,22860,0.8407643,0.0,0.0,17658.85,20,18,2024-07-07T19:59:01.472+02:00,1927233.606049,0,162.973,92.47115,1720373026.500783,0.0.0.0,10.214.108.195,iphone Senen,1720374095.618023,3,1720373026.475875,1,0.85,0,0.0
2024-07-07T20:02:36.205+02:00,41363,1720375356.000345,40.48039159605467,-4.071648507117906,771.8782,0.0,1.084966,-1.0,-1.0,3.368845794662104,4.740824300116626,-9999,1720375356.199889,-16.52806854248047,19.50978469848633,-37.15202331542969,45.36111450195312,45.04867172241211,20.43424034118652,1927236.450934625,0.05157470703125,0.03985595703125,-0.9944000244140624,1927236.419732625,-0.0005978796398267,-0.0136074218899011,0.0025939189363271,1927236.441246625,7.389938354492188,17.06478881835938,-144.6450347900391,1927236.423476625,-1.906220490510361,0.050294564441446,-0.0401859971131586,0.0015470887301489,-0.0114896390587091,0.0036867670714855,0.0030204728245735,-0.0006091073155403,-0.0029252767562866,XArbitraryCorrectedZVertical,0.0088618785490598,0.0309335290431388,-0.8150910975732348,0.5784386681254778,0.0502327755093574,0.0401751808822155,-0.9979291558265686,-16.42827606201172,19.60603713989258,-37.1214599609375,-1,1,1927223.0789945,stationary,2,2024-07-07T20:02:22.123+02:00,2024-07-04T15:01:54.251+02:00,22860,0.8407643,0.0,0.0,17658.85,20,18,2024-07-07T19:59:01.472+02:00,1927233.606049,0,162.973,92.47115,1720373026.500783,0.0.0.0,10.214.108.195,iphone Senen,1720374095.618023,3,1720373026.475875,1,0.85,0,0.0
2024-07-07T20:02:36.265+02:00,41364,1720375356.000345,40.48039159605467,-4.071648507117906,771.8782,0.0,1.084966,-1.0,-1.0,3.368845794662104,4.740824300116626,-9999,1720375356.259841,-16.17641067504883,19.37010192871094,-37.21379089355469,45.36370468139648,45.05126190185547,20.43423652648926,1927236.510842625,0.0450592041015625,0.0402984619140625,-1.0009765625,1927236.479640625,-0.0045790392905473,-0.0015821839915588,0.0056126117706298,1927236.501773625,7.80126953125,16.84437561035156,-144.6944732666016,1927236.483384625,-1.906316642017125,0.0500382755302597,-0.0402330990505093,0.0009195403545163,0.0025801160372793,0.0020708597730845,0.0002550892531871,0.0004729852080345,-0.0007018446922302,XArbitraryCorrectedZVertical,0.0087452736858551,0.0308781685403353,-0.8151199737244159,0.5784026050912737,0.049976922571659,0.0402222461998462,-0.9979401230812072,-16.340087890625,19.60128021240234,-37.00344848632812,-1,1,1927223.0789945,stationary,2,2024-07-07T20:02:22.123+02:00,2024-07-04T15:01:54.251+02:00,22860,0.8407643,0.0,0.0,17658.85,20,18,2024-07-07T19:59:01.472+02:00,1927233.606049,0,162.973,92.47115,1720373026.500783,0.0.0.0,10.214.108.195,iphone Senen,1720374095.618023,3,1720373026.475875,1,0.85,0,0.0
2024-07-07T20:02:36.325+02:00,41365,1720375356.000345,40.48039159605467,-4.071648507117906,771.8782,0.0,1.084966,-1.0,-1.0,3.368845794662104,4.740824300116626,-9999,1720375356.319774,-16.28718948364258,19.48410415649414,-37.02413940429688,45.38238143920898,45.06993865966797,20.43423461914062,1927236.570750625,0.0511322021484375,0.039459228515625,-0.9983062744140624,1927236.539547625,-0.0016088156262412,0.0019158780341967,-0.0024501082953065,1927236.562297625,7.6065673828125,17.08335876464844,-144.4752502441406,1927236.543292625,-1.906506429123611,0.050252114717037,-0.0401902366114248,-0.0002571120858192,0.0039910348132252,-0.0028168698772788,-0.0035594701766967,-0.0006896331906318,0.0044924020767211,XArbitraryCorrectedZVertical,0.008847773487188,0.0309217148932814,-0.8151739576542165,0.5783226438003933,0.0501904040575027,0.0401794165372848,-0.9979311227798462,-16.22290420532227,19.32237243652344,-37.0972900390625,-1,1,1927223.0789945,stationary,2,2024-07-07T20:02:22.123+02:00,2024-07-04T15:01:54.251+02:00,22860,0.8407643,0.0,0.0,17658.85,20,18,2024-07-07T19:59:01.472+02:00,1927233.606049,0,162.973,92.47115,1720373026.500783,0.0.0.0,10.214.108.195,iphone Senen,1720374095.618023,3,1720373026.475875,1,0.85,0,0.0
2024-07-07T20:02:36.384+02:00,41366,1720375356.000345,40.48039159605467,-4.071648507117906,771.8782,0.0,1.084966,-1.0,-1.0,3.368845794662104,4.740824300116626,-9999,1720375356.379618,-16.2607421875,19.66465377807617,-37.01481628417969,45.37850189208984,45.06605911254883,20.43423080444336,1927236.630657625,0.0523223876953125,0.040130615234375,-0.9990234375,1927236.599455625,-0.0002604571636766,-0.0007760451408103,0.0004636563535314,1927236.622824625,7.669464111328125,17.23204040527344,-144.4366302490234,1927236.603200625,-1.906697535465253,0.0503503487860692,-0.0402357742783271,0.0010540097719058,-7.530627772212029e-05,0.0016566696576774,0.0052537247538566,1.254677772521973e-05,-0.0058597922325134,XArbitraryCorrectedZVertical,0.0088775822950717,0.0309678177874978,-0.8152287567880491,0.5782425942348509,0.0502883419394493,0.0402249172329902,-0.9979243874549866,-16.16070938110352,19.58272171020508,-36.97470092773438,-1,1,1927223.0789945,stationary,2,2024-07-07T20:02:22.123+02:00,2024-07-04T15:01:54.251+02:00,22860,0.8407643,0.0,0.0,17658.85,20,18,2024-07-07T19:59:01.472+02:00,1927233.606049,0,162.973,92.47115,1720373026.500783,0.0.0.0,10.214.108.195,iphone Senen,1720374095.618023,3,1720373026.475875,1,0.85,0,0.0
2024-07-07T20:02:36.446+02:00,41367,1720375356.000345,40.48039159605467,-4.071648507117906,771.8782,0.0,1.084966,-1.0,-1.0,3.368845794662104,4.740824300116626,-9999,1720375356.439505,-16.17575645446777,19.57898330688477,-37.06971740722656,45.36222076416016,45.04977798461914,20.43422698974609,1927236.690565625,0.0458984375,0.0391082763671875,-0.997589111328125,1927236.659363625,0.0025923210196197,0.0043702474795281,0.005011270288378,1927236.683347625,7.744293212890625,17.14006042480469,-144.5456237792969,1927236.663107625,-1.906436581564221,0.0504213913054055,-0.0401411257425791,-0.0017937021329998,0.0053886696696281,0.0037857377901673,-0.0003563053905963,0.0001681521534919,-4.595518112182617e-05,XArbitraryCorrectedZVertical,0.0089299086619558,0.0309509723826225,-0.8151530516269763,0.5783492823425691,0.0503594316542148,0.0401303470134735,-0.9979245662689208,-16.17973899841309,19.59431838989258,-37.3143310546875,-1,1,1927223.0789945,stationary,2,2024-07-07T20:02:22.123+02:00,2024-07-04T15:01:54.251+02:00,22860,0.8407643,0.0,0.0,17658.85,20,18,2024-07-07T19:59:01.472+02:00,1927233.606049,0,162.973,92.47115,1720373026.500783,0.0.0.0,10.214.108.195,iphone Senen,1720374095.618023,3,1720373026.475875,1,0.85,0,0.0
2024-07-07T20:02:36.504+02:00,41368,1720375356.000345,40.48039159605467,-4.071648507117906,771.8782,0.0,1.084966,-1.0,-1.0,3.368845794662104,4.740824300116626,-9999,1720375356.499309,-15.95662498474121,19.64245986938477,-37.24771118164062,45.35359573364258,45.04115295410156,20.43422317504883,1927236.750473625,0.052032470703125,0.04010009765625,-1.000076293945312,1927236.719271625,-0.0030088394414633,0.0127818416804075,0.0014564828015863,1927236.743869625,8.099838256835938,17.12322998046875,-144.6681671142578,1927236.723015625,-1.906220346812767,0.0510758831256481,-0.0401393610513714,-0.0028052031993865,0.0129799870774149,-0.00277791894041,-0.0024284943938255,0.0003682821989059,0.0015230774879455,XArbitraryCorrectedZVertical,0.0091938052684244,0.0311405070775474,-0.8150875722244942,0.5784273724304574,0.0510125569999218,0.0401285849511623,-0.9978914856910706,-16.26473426818848,19.74192047119141,-37.35899353027344,-1,1,1927223.0789945,stationary,2,2024-07-07T20:02:22.123+02:00,2024-07-04T15:01:54.251+02:00,22860,0.8407643,0.0,0.0,17658.85,20,18,2024-07-07T19:59:01.472+02:00,1927233.606049,0,162.973,92.47115,1720373026.500783,0.0.0.0,10.214.108.195,iphone Senen,1720374095.618023,3,1720373026.475875,1,0.85,0,0.0
2024-07-07T20:02:36.565+02:00,41369,1720375356.000345,40.48039159605467,-4.071648507117906,771.8782,0.0,1.084966,-1.0,-1.0,3.368845794662104,4.740824300116626,-9999,1720375356.559422,-16.01761627197266,19.44709777832031,-37.44493103027344,45.36220169067383,45.04975891113281,20.4342212677002,1927236.810381625,0.05426025390625,0.0390777587890625,-0.9952850341796876,1927236.779179625,0.0052640042267739,0.0058621503412723,-0.0010852381819859,1927236.804392625,7.93896484375,16.99226379394531,-144.9241638183594,1927236.782923625,-1.90624723778693,0.0515964462738709,-0.0401693372043,0.0041413488797843,0.0085005657747387,-0.0031923756469041,-6.398186087608337e-05,-0.0012333244085311,-0.0061342120170593,XArbitraryCorrectedZVertical,0.0093976995630195,0.0313031432170173,-0.8150928829303526,0.5784076763203524,0.0515319518744945,0.0401585362851619,-0.9978635907173156,-16.01630783081055,19.54471969604492,-37.26771545410156,-1,1,1927223.0789945,stationary,2,2024-07-07T20:02:22.123+02:00,2024-07-04T15:01:54.251+02:00,22860,0.8407643,0.0,0.0,17658.85,20,18,2024-07-07T19:59:01.472+02:00,1927233.606049,0,162.973,92.47115,1720373026.500783,0.0.0.0,10.214.108.195,iphone Senen,1720374095.618023,3,1720373026.475875,1,0.85,0,0.0
2024-07-07T20:02:36.624+02:00,41370,1720375356.000345,40.48039159605467,-4.071648507117906,771.8782,0.0,1.084966,-1.0,-1.0,3.368845794662104,4.740824300116626,-9999,1720375356.619325,-16.13156700134277,19.44237899780273,-37.29299926757812,45.34953308105469,45.03709030151367,20.43421936035156,1927236.87028925,0.0500335693359375,0.040924072265625,-0.99945068359375,1927236.839087625,-0.0022256036754697,-0.0049071405082941,0.0030674289446324,1927236.864914625,7.838241577148438,16.91851806640625,-144.8744659423828,1927236.842831625,-1.906222008689739,0.0516926880388089,-0.0400474954577023,-0.0054029067978262,-0.0028865705244243,0.0041133067570626,0.0023116543889045,1.756846904754639e-05,0.0040128231048583,XArbitraryCorrectedZVertical,0.0094718123878738,0.0312814742376777,-0.8150852455177559,0.5784185835682182,0.0516282394528389,0.0400367900729179,-0.9978635311126708,-16.13699913024902,19.45310974121094,-37.00631713867188,-1,1,1927223.0789945,stationary,2,2024-07-07T20:02:22.123+02:00,2024-07-04T15:01:54.251+02:00,22860,0.8407643,0.0,0.0,17658.85,20,18,2024-07-07T19:59:01.472+02:00,1927233.606049,0,162.973,92.47115,1720373026.500783,0.0.0.0,10.214.108.195,iphone Senen,1720374095.618023,3,1720373026.475875,1,0.85,0,0.0
2024-07-07T20:02:36.685+02:00,41371,1720375356.000345,40.48039159605467,-4.071648507117906,771.8782,0.0,1.084966,-1.0,-1.0,3.368845794662104,4.740824300116626,-9999,1720375356.679128,-16.32535934448242,19.64332962036133,-37.29400634765625,45.34246444702148,45.03002166748047,20.43421745300293,1927236.93019725,0.049224853515625,0.0387725830078125,-0.99981689453125,1927236.89899425,-0.0012391688069328,-0.012753346003592,0.0002993392990902,1927236.92543525,7.589157104492188,17.24197387695312,-144.8115844726562,1927236.90273925,-1.905980430103971,0.0513128991316071,-0.0401611838966771,-0.002094461582601,-0.010580176487565,0.0035460535436868,-0.0013527087867259,0.001078899949789,-0.0031438469886779,XArbitraryCorrectedZVertical,0.0092803358811875,0.0312190568791076,-0.8150170554658465,0.5785210324448916,0.0512490272521972,0.0401503890752792,-0.9978784918785096,-16.10677909851074,19.41606140136719,-37.35214233398438,-1,1,1927223.0789945,stationary,2,2024-07-07T20:02:22.123+02:00,2024-07-04T15:01:54.251+02:00,22860,0.8407643,0.0,0.0,17658.85,20,18,2024-07-07T19:59:01.472+02:00,1927233.606049,0,162.973,92.47115,1720373026.500783,0.0.0.0,10.214.108.195,iphone Senen,1720374095.618023,3,1720373026.475875,1,0.85,0,0.0
2024-07-07T20:02:36.744+02:00,41372,1720375356.000345,40.48039159605467,-4.071648507117906,771.8782,0.0,1.084966,-1.0,-1.0,3.368845794662104,4.740824300116626,-9999,1720375356.739041,-16.28656959533691,19.73411560058594,-37.50485229492188,45.35408782958984,45.04164505004883,20.4342155456543,1927236.99010525,0.04998779296875,0.0407257080078125,-0.99371337890625,1927236.95890225,0.0019273296929895,-0.0123083312064409,-0.0007366303470917,1927236.98595625,7.693435668945312,17.3182373046875,-145.0022888183594,1927236.96264725,-1.906060570366517,0.0506340178024308,-0.0400907802022609,0.0002382894745096,-0.0103821884840726,-0.0043427757918834,-0.0012399740517139,-0.0014294907450675,-0.0034116506576538,XArbitraryCorrectedZVertical,0.0090253228016818,0.0309936509365396,-0.8150433931566381,0.5785000421147833,0.0505717173218727,0.040080040693283,-0.9979158639907836,-16.32455635070801,19.62979888916016,-37.67247009277344,-1,1,1927223.0789945,stationary,2,2024-07-07T20:02:22.123+02:00,2024-07-04T15:01:54.251+02:00,22860,0.8407643,0.0,0.0,17658.85,20,18,2024-07-07T19:59:01.472+02:00,1927233.606049,0,162.973,92.47115,1720373026.500783,0.0.0.0,10.214.108.195,iphone Senen,1720374095.618023,3,1720373026.475875,1,0.85,0,0.0
2024-07-07T20:02:36.805+02:00,41373,1720375356.000345,40.48039159605467,-4.071648507117906,771.8782,0.0,1.084966,-1.0,-1.0,3.368845794662104,4.740824300116626,-9999,1720375356.798933,-16.32197189331055,19.54169082641602,-37.34822082519531,45.3509635925293,45.03852081298828,20.43421173095703,1927237.05001225,0.051025390625,0.0391082763671875,-1.003555297851562,1927237.01881025,-0.0066536418162286,-0.0048110005445778,0.0022277343086898,1927237.04647925,7.622955322265625,17.11054992675781,-144.854248046875,1927237.02255425,-1.906096889832655,0.0501716079827409,-0.0401437040427478,-0.0058321575634181,-0.0027468896005302,-0.0011904608691111,0.002410665154457,0.0013557597994804,0.0031250715255737,XArbitraryCorrectedZVertical,0.0088221068588096,0.0308812875156064,-0.8150559463064425,0.5784916989596959,0.0501101575791835,0.0401329211890697,-0.997937023639679,-16.28176879882812,19.62655639648438,-37.53164672851562,-1,1,1927223.0789945,stationary,2,2024-07-07T20:02:22.123+02:00,2024-07-04T15:01:54.251+02:00,22860,0.8407643,0.0,0.0,17658.85,20,18,2024-07-07T19:59:01.472+02:00,1927233.606049,0,162.973,92.47115,1720373026.500783,0.0.0.0,10.214.108.195,iphone Senen,1720374095.618023,3,1720373026.475875,1,0.85,0,0.0
2024-07-07T20:02:36.864+02:00,41374,1720375356.000345,40.48039159605467,-4.071648507117906,771.8782,0.0,1.084966,-1.0,-1.0,3.368845794662104,4.740824300116626,-9999,1720375356.858935,-16.40511894226074,19.6953239440918,-37.36119079589844,45.35516357421875,45.04272079467773,20.4342098236084,1927237.10992025,0.0489501953125,0.0377349853515625,-0.99749755859375,1927237.07871825,0.0006878945278003,-0.000680437660776,0.0022469090763479,1927237.10700025,7.525070190429688,17.30166625976562,-144.7978057861328,1927237.08246225,-1.906087406106444,0.0501463534411395,-0.0402491106053535,-0.0014074030332267,0.0015667831758037,0.0038602377753704,0.0002235583961009,-0.0005806162953376,-0.007131814956665,XArbitraryCorrectedZVertical,0.0087811405708673,0.0309169520645636,-0.8150531888026671,0.57849412430324,0.0500847436487674,0.0402382425963878,-0.9979340434074402,-16.32799530029297,19.4822998046875,-37.35948181152344,-1,1,1927223.0789945,stationary,2,2024-07-07T20:02:22.123+02:00,2024-07-04T15:01:54.251+02:00,22860,0.8407643,0.0,0.0,17658.85,20,18,2024-07-07T19:59:01.472+02:00,1927233.606049,0,162.973,92.47115,1720373026.500783,0.0.0.0,10.214.108.195,iphone Senen,1720374095.618023,3,1720373026.475875,1,0.85,0,0.0
2024-07-07T20:02:36.925+02:00,41375,1720375356.000345,40.48039159605467,-4.071648507117906,771.8782,0.0,1.084966,-1.0,-1.0,3.368845794662104,4.740824300116626,-9999,1720375356.918733,-16.33520126342773,19.60148239135742,-37.38993835449219,45.37066650390625,45.05822372436523,20.4342098236084,1927237.16982825,0.0507049560546875,0.041748046875,-0.9971923828125,1927237.13862625,0.0016423714114353,0.0043683829717338,-0.0010231864871457,1927237.16752125,7.635284423828125,17.16941833496094,-144.8867340087891,1927237.14237025,-1.906332218791794,0.050451796446183,-0.0401834951530578,0.0013302706647664,0.0052238591015338,-0.0039614359848201,-0.0009053610265254,0.0003241784870624,0.0022243857383728,XArbitraryCorrectedZVertical,0.0089284141561621,0.030977486556053,-0.8151227043255102,0.5783906951462015,0.0503896847367286,0.0401726812124252,-0.997921347618103,-16.34202575683594,19.55995559692383,-37.34901428222656,-1,1,1927223.0789945,stationary,2,2024-07-07T20:02:22.123+02:00,2024-07-04T15:01:54.251+02:00,22860,0.8407643,0.0,0.0,17658.85,20,18,2024-07-07T19:59:01.472+02:00,1927233.606049,0,162.973,92.47115,1720373026.500783,0.0.0.0,10.214.108.195,iphone Senen,1720374095.618023,3,1720373026.475875,1,0.85,0,0.0
2024-07-07T20:02:36.983+02:00,41376,1720375356.000345,40.48039159605467,-4.071648507117906,771.8782,0.0,1.084966,-1.0,-1.0,3.368845794662104,4.740824300116626,-9999,1720375356.978855,-16.42474365234375,19.62599563598633,-37.34443664550781,45.38204574584961,45.06960296630859,20.43422889709473,1927237.22973625,0.0506744384765625,0.038330078125,-1.005599975585938,1927237.19853425,-0.0032914008479565,0.0065103634260594,0.0020311928819864,1927237.22804225,7.465866088867188,17.0126953125,-144.731201171875,1927237.20227825,-1.906621256147734,0.0508924276426879,-0.0403285287902128,-0.0038469200953841,0.0109050711616873,-0.0004644914297387,-0.0017567612230777,0.0004386641085147,0.0002889037132263,XArbitraryCorrectedZVertical,0.0090704994217076,0.0311626710331999,-0.815204170518711,0.5782636803617254,0.0508291013538837,0.0403175987303257,-0.997893214225769,-16.3946475982666,19.46856689453125,-37.30583190917969,-1,1,1927223.0789945,stationary,2,2024-07-07T20:02:22.123+02:00,2024-07-04T15:01:54.251+02:00,22860,0.8407643,0.0,0.0,17658.85,20,18,2024-07-07T19:59:01.472+02:00,1927233.606049,0,162.973,92.47115,1720373026.500783,0.0.0.0,10.214.108.195,iphone Senen,1720374095.618023,3,1720373026.475875,1,0.85,0,0.0
2024-07-07T20:02:37.044+02:00,41377,1720375357.000354,40.48039159605467,-4.071648507117906,771.8782,0.0,1.084699,-1.0,-1.0,3.368983464050601,4.74072646877485,-9999,1720375357.018659,-16.41011428833008,19.73428726196289,-37.56404113769531,45.38649368286133,45.07405090332031,20.43422889709473,1927237.28964425,0.051361083984375,0.0411834716796875,-0.99285888671875,1927237.25844225,0.003189668059349,0.0007182545377872,0.0009845705935731,1927237.28856325,7.737274169921875,17.02569580078125,-144.9446105957031,1927237.26218625,-1.906732398048509,0.0511535713401928,-0.0402069374884498,0.0038833816070109,0.0008820213843137,0.0011797742918133,0.0009426064789295,-0.0014234818518161,-0.0053042769432067,XArbitraryCorrectedZVertical,0.0092138773770125,0.0311881365174508,-0.8152352422081858,0.578216440821104,0.0510899424552917,0.0401961058378219,-0.9978848099708556,-16.41011428833008,19.73428726196289,-37.56404113769531,-1,1,1927223.0789945,stationary,2,2024-07-07T20:02:22.123+02:00,2024-07-04T15:01:54.251+02:00,22860,0.8407643,0.0,0.0,17658.85,20,18,2024-07-07T19:59:01.472+02:00,1927233.606049,0,162.973,92.47115,1720373026.500783,0.0.0.0,10.214.108.195,iphone Senen,1720374095.618023,3,1720373026.475875,1,0.85,0,0.0
2024-07-07T20:02:37.103+02:00,41378,1720375357.000354,40.48039159605467,-4.071648507117906,771.8782,0.0,1.084699,-1.0,-1.0,3.368983464050601,4.74072646877485,-9999,1720375357.098522,-16.096923828125,19.49821472167969,-37.27688598632812,45.38401794433594,45.07157516479492,20.43422698974609,1927237.34955225,0.05120849609375,0.0409088134765625,-1.002944946289062,1927237.31834925,-9.82706405920908e-05,-0.0010980212828144,-0.0004474110610317,1927237.34907825,7.7198486328125,17.0240478515625,-144.9368133544922,1927237.32209425,-1.906719992074601,0.0512435084525804,-0.0402474542920421,-0.0003043832839466,0.0010103619424626,-0.0006873980164527,-0.0034500360488891,0.0016640834510326,0.0030818581581115,XArbitraryCorrectedZVertical,0.0092386139585845,0.031230699243252,-0.8152312010362692,0.5782193973947304,0.0511796064674854,0.0402365885674953,-0.9978786110877992,-16.20462036132812,19.5355110168457,-37.10556030273438,-1,1,1927223.0789945,stationary,2,2024-07-07T20:02:22.123+02:00,2024-07-04T15:01:54.251+02:00,22860,0.8407643,0.0,0.0,17658.85,20,18,2024-07-07T19:59:01.472+02:00,1927233.606049,0,162.973,92.47115,1720373026.500783,0.0.0.0,10.214.108.195,iphone Senen,1720374095.618023,3,1720373026.475875,1,0.85,0,0.0
2024-07-07T20:02:37.166+02:00,41379,1720375357.000354,40.48039159605467,-4.071648507117906,771.8782,0.0,1.084699,-1.0,-1.0,3.368983464050601,4.74072646877485,-9999,1720375357.158496,-16.24249076843262,19.62064361572266,-37.03443908691406,45.38420867919922,45.0717658996582,20.43422698974609,1927237.40945925,0.0511627197265625,0.0378570556640625,-1.003570556640625,1927237.37825725,-0.0014429006259888,-0.0011001517996191,0.0006764429272152,1927237.40959525,7.796615600585938,17.06309509277344,-144.6223449707031,1927237.38200225,-1.906721000531085,0.0512747552904249,-0.0403396307701878,0.0007443322683684,0.0020143897272646,0.0034428301732987,0.0029886998236179,-0.0016018450260162,-0.0055446624755859,XArbitraryCorrectedZVertical,0.0092246794483489,0.0312772738574168,-0.8152312690571885,0.5782169669446129,0.051210593432188,0.0403286926448345,-0.9978732466697692,-16.13691711425781,19.49650192260742,-36.95245361328125,-1,1,1927223.0789945,stationary,2,2024-07-07T20:02:22.123+02:00,2024-07-04T15:01:54.251+02:00,22860,0.8407643,0.0,0.0,17658.85,20,18,2024-07-07T19:59:01.472+02:00,1927234.671349,0,162.9703,92.47118,1720373026.500783,0.0.0.0,10.214.108.195,iphone Senen,1720374095.618023,3,1720373026.475875,1,0.85,0,0.0
2024-07-07T20:02:37.223+02:00,41380,1720375357.000354,40.48039159605467,-4.071648507117906,771.8782,0.0,1.084699,-1.0,-1.0,3.368983464050601,4.74072646877485,-9999,1720375357.218264,-16.30454063415527,19.60142517089844,-37.05558776855469,45.38211822509766,45.06967544555664,20.43422698974609,1927237.46936725,0.0502166748046875,0.0419769287109375,-0.9945220947265624,1927237.43816525,0.0012314456980675,-0.0021377194207161,0.0002572613593656,1927237.47011425,7.751022338867188,17.00962829589844,-144.6936645507812,1927237.44190925,-1.906674894522749,0.0512316199416432,-0.0402231914532951,0.0039540673606097,0.001003147684969,-0.0001952761085703,-0.000478021800518,0.0015815123915672,0.000809907913208,XArbitraryCorrectedZVertical,0.0092400892842617,0.0312175880605802,-0.815218234096367,0.5782383471386425,0.0511677898466587,0.0402123443782329,-0.9978801608085632,-16.25122451782227,19.56515502929688,-36.84359741210938,-1,1,1927223.0789945,stationary,2,2024-07-07T20:02:22.123+02:00,2024-07-04T15:01:54.251+02:00,22860,0.8407643,0.0,0.0,17658.85,20,18,2024-07-07T19:59:01.472+02:00,1927234.671349,0,162.9703,92.47118,1720373026.500783,0.0.0.0,10.214.108.195,iphone Senen,1720374095.618023,3,1720373026.475875,1,0.85,0,0.0
2024-07-07T20:02:37.285+02:00,41381,1720375357.000354,40.48039159605467,-4.071648507117906,771.8782,0.0,1.084699,-1.0,-1.0,3.368983464050601,4.74072646877485,-9999,1720375357.278188,-16.14454460144043,19.31675338745117,-37.29803466796875,45.38743591308594,45.07499313354492,20.43422698974609,1927237.52927525,0.0504150390625,0.038970947265625,-1.00421142578125,1927237.49807325,-0.0022287995088845,-0.0036171053070575,0.0004074636381119,1927237.53063325,7.691650390625,16.96981811523438,-145.0149688720703,1927237.50181725,-1.906697169916096,0.0512217905948741,-0.0403569425429949,-0.0021314728073775,-0.0031700886320322,0.0003524426138028,-0.0012461319565773,-0.0001237802207469,-0.0022467970848083,XArbitraryCorrectedZVertical,0.0091977076517081,0.0312691236128941,-0.8152245933683089,0.5782271468490142,0.0511577054858207,0.0403459891676902,-0.9978752732276917,-16.2161750793457,19.38144683837891,-37.31941223144531,-1,1,1927223.0789945,stationary,2,2024-07-07T20:02:22.123+02:00,2024-07-04T15:01:54.251+02:00,22860,0.8407643,0.0,0.0,17658.85,20,18,2024-07-07T19:59:01.472+02:00,1927234.671349,0,162.9703,92.47118,1720373026.500783,0.0.0.0,10.214.108.195,iphone Senen,1720374095.618023,3,1720373026.475875,1,0.85,0,0.0
2024-07-07T20:02:37.343+02:00,41382,1720375357.000354,40.48039159605467,-4.071648507117906,771.8782,0.0,1.084699,-1.0,-1.0,3.368983464050601,4.74072646877485,-9999,1720375357.338151,-16.29732704162598,19.62588882446289,-37.25318908691406,45.39396286010742,45.08152008056641,20.43422698974609,1927237.58918325,0.0521240234375,0.041290283203125,-0.99749755859375,1927237.55798125,-0.0026200178544968,-0.003352120751515,-4.420847471919842e-05,1927237.59115625,7.739700317382812,17.09716796875,-144.7049560546875,1927237.56172525,-1.906866259230747,0.0511312361345116,-0.0403099631457904,0.0006284288829192,0.0003661828814074,-0.0010182011174038,0.0002326853573322,-0.0018163435161113,-0.000592291355133,XArbitraryCorrectedZVertical,0.0091770366916869,0.0312230308953588,-0.815273943227626,0.5781604630494699,0.051067441701889,0.0402990467846393,-0.9978818297386168,-16.11310768127441,19.51724624633789,-37.02931213378906,-1,1,1927223.0789945,stationary,2,2024-07-07T20:02:22.123+02:00,2024-07-04T15:01:54.251+02:00,22860,0.8407643,0.0,0.0,17658.85,20,18,2024-07-07T19:59:01.472+02:00,1927234.671349,0,162.9703,92.47118,1720373026.500783,0.0.0.0,10.214.108.195,iphone Senen,1720374095.618023,3,1720373026.475875,1,0.85,0,0.0
2024-07-07T20:02:37.405+02:00,41383,1720375357.000354,40.48039159605467,-4.071648507117906,771.8782,0.0,1.084699,-1.0,-1.0,3.368983464050601,4.74072646877485,-9999,1720375357.398024,-16.24065208435059,19.6273078918457,-37.43356323242188,45.39323043823242,45.08078765869141,20.43422698974609,1927237.64909125,0.04998779296875,0.0405426025390625,-0.9988555908203124,1927237.61788925,-0.0024258734192699,-0.0059825251810252,-3.728425508597866e-05,1927237.65167725,7.785980224609375,16.89251708984375,-144.8437957763672,1927237.62163325,-1.906874077554826,0.050992968781348,-0.0403583571753441,-0.0031191341113299,-0.0025340153370052,0.0010279741836711,-0.0025741904973983,0.0012480914592742,-0.0001751780509948,XArbitraryCorrectedZVertical,0.0091067850032248,0.0312027372732529,-0.8152767999191836,0.578158671962717,0.0509293675422668,0.0403474010527133,-0.9978868961334229,-16.21214294433594,19.45430755615234,-37.40135192871094,-1,1,1927223.0789945,stationary,2,2024-07-07T20:02:22.123+02:00,2024-07-04T15:01:54.251+02:00,22860,0.8407643,0.0,0.0,17658.85,20,18,2024-07-07T19:59:01.472+02:00,1927234.671349,0,162.9703,92.47118,1720373026.500783,0.0.0.0,10.214.108.195,iphone Senen,1720374095.618023,3,1720373026.475875,1,0.85,0,0.0
2024-07-07T20:02:37.463+02:00,41384,1720375357.000354,40.48039159605467,-4.071648507117906,771.8782,0.0,1.084699,-1.0,-1.0,3.368983464050601,4.74072646877485,-9999,1720375357.458018,-16.22219848632812,19.64964294433594,-37.04341125488281,45.38512420654297,45.07268142700195,20.43422698974609,1927237.70899925,0.05194091796875,0.0404510498046875,-0.999053955078125,1927237.67779625,0.002110555069521,-0.0081838937476277,0.002051965566352,1927237.71219725,7.812759399414062,16.92245483398438,-144.6079864501953,1927237.68154125,-1.906777972900168,0.0508456827137296,-0.0403628088436867,0.0029414831660687,-0.0078658433631062,-0.0017912107286974,0.0019215494394302,-0.0010299123823642,-0.0044861435890197,XArbitraryCorrectedZVertical,0.0090439624276449,0.0311624096067091,-0.8152496601576413,0.5781999640483814,0.0507823824882507,0.0403518490493297,-0.9978942275047302,-16.14530944824219,19.55340957641602,-37.20089721679688,-1,1,1927223.0789945,stationary,2,2024-07-07T20:02:22.123+02:00,2024-07-04T15:01:54.251+02:00,22860,0.8407643,0.0,0.0,17658.85,20,18,2024-07-07T19:59:01.472+02:00,1927234.671349,0,162.9703,92.47118,1720373026.500783,0.0.0.0,10.214.108.195,iphone Senen,1720374095.618023,3,1720373026.475875,1,0.85,0,0.0
2024-07-07T20:02:37.525+02:00,41385,1720375357.000354,40.48039159605467,-4.071648507117906,771.8782,0.0,1.084699,-1.0,-1.0,3.368983464050601,4.74072646877485,-9999,1720375357.51779,-16.28353691101074,19.62299346923828,-37.21484375,45.38428115844727,45.07183837890625,20.43422508239746,1927237.76890725,0.0502471923828125,0.0405426025390625,-0.9971160888671876,1927237.73770425,-0.0005044027348048,-0.0105407917872071,0.0003102582704741,1927237.74245825,7.81591796875,17.08627319335938,-144.9646148681641,1927237.74144925,-1.906727567176003,0.050411974396118,-0.0401957069441139,0.0014755432493984,-0.0070528355427086,0.0007376995054073,-7.21365213394165e-05,0.0015021674335002,0.0035228729248046,XArbitraryCorrectedZVertical,0.0089147678215828,0.0309691810243381,-0.8152372004832782,0.5782300373052858,0.0503499209880828,0.0401848852634429,-0.9979228973388672,-16.39149856567383,19.63536834716797,-37.17877197265625,-1,1,1927223.0789945,stationary,2,2024-07-07T20:02:22.123+02:00,2024-07-04T15:01:54.251+02:00,22860,0.8407643,0.0,0.0,17658.85,20,18,2024-07-07T19:59:01.472+02:00,1927234.671349,0,162.9703,92.47118,1720373026.500783,0.0.0.0,10.214.108.195,iphone Senen,1720374095.618023,3,1720373026.475875,1,0.85,0,0.0
2024-07-07T20:02:37.583+02:00,41386,1720375357.000354,40.48039159605467,-4.071648507117906,771.8782,0.0,1.084699,-1.0,-1.0,3.368983464050601,4.74072646877485,-9999,1720375357.577802,-16.35800552368164,19.56296920776367,-37.36839294433594,45.37523651123047,45.06279373168945,20.43422317504883,1927237.82881425,0.05108642578125,0.0402679443359375,-0.9996795654296876,1927237.79761225,0.0013190637109801,-0.016389625146985,0.0020644825417548,1927237.80298025,7.740264892578125,16.96853637695312,-144.6236724853516,1927237.80135625,-1.906541114427111,0.0497436098883838,-0.0402530401244732,0.0014773143921047,-0.012805757112801,0.0006683544488623,0.0006560012698173,-0.0017289482057094,-0.0036786794662475,XArbitraryCorrectedZVertical,0.0086228612145937,0.0308001041949893,-0.8151861481893968,0.5783153488053838,0.0496828183531761,0.0402421690523624,-0.99795401096344,-16.31546783447266,19.68463516235352,-37.13420104980469,-1,1,1927223.0789945,stationary,2,2024-07-07T20:02:22.123+02:00,2024-07-04T15:01:54.251+02:00,22860,0.8407643,0.0,0.0,17658.85,20,18,2024-07-07T19:59:01.472+02:00,1927234.671349,0,162.9703,92.47118,1720373026.500783,0.0.0.0,10.214.108.195,iphone Senen,1720374095.618023,3,1720373026.475875,1,0.85,0,0.0
2024-07-07T20:02:37.644+02:00,41387,1720375357.000354,40.48039159605467,-4.071648507117906,771.8782,0.0,1.084699,-1.0,-1.0,3.368983464050601,4.74072646877485,-9999,1720375357.637716,-16.40548706054688,19.58490753173828,-37.15451049804688,45.3848762512207,45.07243347167969,20.43422317504883,1927237.888723125,0.04852294921875,0.04180908203125,-0.995635986328125,1927237.85752025,-0.0011147991754114,-0.0080483388155698,0.0018522285390645,1927237.86350225,7.680938720703125,16.99287414550781,-144.42626953125,1927237.86126425,-1.906631149379579,0.0491099851005512,-0.0401837851814139,0.0034656119532883,-0.0098025016486644,0.000917314493563,0.0006473287940025,-0.0007900036871433,-0.000165581703186,XArbitraryCorrectedZVertical,0.0083860304305041,0.030588299491979,-0.8152149495011809,0.5782894808590752,0.0490506179630756,0.0401729717850685,-0.9979880452156068,-16.38739013671875,19.49986267089844,-37.26393127441406,-1,1,1927223.0789945,stationary,2,2024-07-07T20:02:22.123+02:00,2024-07-04T15:01:54.251+02:00,22860,0.8407643,0.0,0.0,17658.85,20,18,2024-07-07T19:59:01.472+02:00,1927234.671349,0,162.9703,92.47118,1720373026.500783,0.0.0.0,10.214.108.195,iphone Senen,1720374095.618023,3,1720373026.475875,1,0.85,0,0.0
2024-07-07T20:02:37.702+02:00,41388,1720375357.000354,40.48039159605467,-4.071648507117906,771.8782,0.0,1.084699,-1.0,-1.0,3.368983464050601,4.74072646877485,-9999,1720375357.697681,-16.33406066894531,19.48659133911133,-37.26751708984375,45.39065551757812,45.07821273803711,20.4342212677002,1927237.948631125,0.0489349365234375,0.039093017578125,-1.000198364257812,1927237.917429125,-0.001585912425071,-0.0073426011949777,0.0008482168195769,1927237.924023125,7.54388427734375,17.13925170898438,-144.7679138183594,1927237.921173125,-1.906725555045916,0.0488498315899543,-0.040217587038932,-0.0017991410568356,-0.0033580530434846,0.0026747821830213,-0.0018548071384429,-0.0004117861390113,-0.0003221035003662,XArbitraryCorrectedZVertical,0.0082716439799127,0.0305264553548907,-0.815243288745962,0.5782544260239737,0.0487909205257892,0.0402067452669143,-0.9979994297027588,-16.35065460205078,19.48102569580078,-37.12127685546875,-1,1,1927223.0789945,stationary,2,2024-07-07T20:02:22.123+02:00,2024-07-04T15:01:54.251+02:00,22860,0.8407643,0.0,0.0,17658.85,20,18,2024-07-07T19:59:01.472+02:00,1927234.671349,0,162.9703,92.47118,1720373026.500783,0.0.0.0,10.214.108.195,iphone Senen,1720374095.618023,3,1720373026.475875,1,0.85,0,0.0
2024-07-07T20:02:37.765+02:00,41389,1720375357.000354,40.48039159605467,-4.071648507117906,771.8782,0.0,1.084699,-1.0,-1.0,3.368983464050601,4.74072646877485,-9999,1720375357.757561,-16.43072128295898,19.55412673950195,-37.35269165039062,45.39704513549805,45.08460235595703,20.43421936035156,1927238.008539125,0.0501556396484375,0.037994384765625,-0.996917724609375,1927237.977337125,-0.0013600763631984,-0.0046341666020452,-0.0007669904152862,1927237.984544125,7.555084228515625,17.10955810546875,-144.7400360107422,1927237.981081125,-1.90687457860967,0.0486435080897436,-0.040211132601179,0.0009143840288743,-0.0032498259097337,0.0012668722774833,0.0003499910235404,0.0001897551119327,8.493661880493164e-05,XArbitraryCorrectedZVertical,0.008191680624092,0.0304635619929651,-0.8152872302903817,0.578196928528025,0.0485850200057029,0.0402002967894077,-0.9980097413063048,-16.32135581970215,19.52813339233398,-37.19512939453125,-1,1,1927223.0789945,stationary,2,2024-07-07T20:02:22.123+02:00,2024-07-04T15:01:54.251+02:00,22860,0.8407643,0.0,0.0,17658.85,20,18,2024-07-07T19:59:01.472+02:00,1927234.671349,0,162.9703,92.47118,1720373026.500783,0.0.0.0,10.214.108.195,iphone Senen,1720374095.618023,3,1720373026.475875,1,0.85,0,0.0
