loggingTime(txt),loggingSample(N),locationTimestamp_since1970(s),locationLatitude(WGS84),locationLongitude(WGS84),locationAltitude(m),locationSpeed(m/s),locationSpeedAccuracy(m/s),locationCourse(°),locationCourseAccuracy(°),locationVerticalAccuracy(m),locationHorizontalAccuracy(m),locationFloor(Z),locationHeadingTimestamp_since1970(s),locationHeadingX(µT),locationHeadingY(µT),locationHeadingZ(µT),locationTrueHeading(°),locationMagneticHeading(°),locationHeadingAccuracy(°),accelerometerTimestamp_sinceReboot(s),accelerometerAccelerationX(G),accelerometerAccelerationY(G),accelerometerAccelerationZ(G),gyroTimestamp_sinceReboot(s),gyroRotationX(rad/s),gyroRotationY(rad/s),gyroRotationZ(rad/s),magnetometerTimestamp_sinceReboot(s),magnetometerX(µT),magnetometerY(µT),magnetometerZ(µT),motionTimestamp_sinceReboot(s),motionYaw(rad),motionRoll(rad),motionPitch(rad),motionRotationRateX(rad/s),motionRotationRateY(rad/s),motionRotationRateZ(rad/s),motionUserAccelerationX(G),motionUserAccelerationY(G),motionUserAccelerationZ(G),motionAttitudeReferenceFrame(txt),motionQuaternionX(R),motionQuaternionY(R),motionQuaternionZ(R),motionQuaternionW(R),motionGravityX(G),motionGravityY(G),motionGravityZ(G),motionMagneticFieldX(µT),motionMagneticFieldY(µT),motionMagneticFieldZ(µT),motionHeading(°),motionMagneticFieldCalibrationAccuracy(Z),activityTimestamp_sinceReboot(s),activity(txt),activityActivityConfidence(Z),activityActivityStartDate(txt),pedometerStartDate(txt),pedometerNumberofSteps(N),pedometerAverageActivePace(s/m),pedometerCurrentPace(s/m),pedometerCurrentCadence(steps/s),pedometerDistance(m),pedometerFloorAscended(N),pedometerFloorDescended(N),pedometerEndDate(txt),altimeterTimestamp_sinceReboot(s),altimeterReset(bool),altimeterRelativeAltitude(m),altimeterPressure(kPa),IP_Timestamp_since1970(s),IP_en0(txt),IP_pdp_ip0(txt),deviceID(txt),deviceOrientationTimeStamp_since1970(s),deviceOrientation(Z),batteryTimeStamp_since1970(s),batteryState(R),batteryLevel(Z),label(N),normalizedLocationAltitude(m)
2024-06-25T20:19:45.072+02:00,47628,1719339585.000681,40.48036930924352,-4.071631054514875,769.0786,0.0,1.317288,156.6923277921374,180.0,3.370728686958844,4.73948574759979,-9999,1719339585.065118,-15.17539691925049,21.08666229248047,-35.43471527099609,41.82225799560547,41.51515960693359,12.04769802093506,1029583.553954792,0.031005859375,0.0829315185546875,-0.996673583984375,1029583.553954792,-0.00229750899598,0.0087442230433225,0.0019438412273302,1029583.537711792,9.159866333007812,23.407958984375,-143.4623107910156,1029583.551457792,-1.209918874558528,0.0316266523337051,-0.0829787616645839,0.0008927934104576,0.0100317820906639,-9.832397336140276e-05,-0.0017731189727783,0.0007192939519882,-0.0008873343467712,XArbitraryCorrectedZVertical,0.025126625489384,-0.0365816109986964,0.5687077215535666,-0.82134149847841,0.031512577086687,0.0828835666179657,-0.996060848236084,-15.17539691925049,21.08666229248047,-35.43471527099609,-1,2,1029499.671203875,stationary,2,2024-06-25T20:18:20.387+02:00,2024-06-23T14:58:42.261+02:00,12916,0.8439061,0.0,0.0,10229.28,20,21,2024-06-25T20:17:12.969+02:00,1029579.949623,0,175.5478,92.07455,1719336731.757089,0.0.0.0,10.206.171.234,iphone Senen,1719338624.801324,5,1719336731.748566,1,0.6,0,0.0
2024-06-25T20:19:45.125+02:00,47629,1719339585.000681,40.48036930924352,-4.071631054514875,769.0786,0.0,1.317288,156.6923277921374,180.0,3.370728686958844,4.73948574759979,-9999,1719339585.104975,-15.05029201507568,21.16194534301758,-35.62903594970703,41.82401275634766,41.51691436767578,12.0477180480957,1029583.613863792,0.0328216552734375,0.08251953125,-1.0006103515625,1029583.613863792,-0.0009550095419399,0.0222642924636602,-0.0009717874927446,1029583.598225792,9.3525390625,23.35633850097656,-143.8148193359375,1029583.611366792,-1.209985370879473,0.032549912859491,-0.0829736557107954,-0.0001461709907744,0.0216935165226459,-0.0010484281228855,-0.0013194493949413,-0.000252179801464,-0.0045785307884216,XArbitraryCorrectedZVertical,0.0248607630484482,-0.0369601371562765,0.5687465815126379,-0.8213058054604117,0.0324322022497654,0.082878477871418,-0.9960317611694336,-14.86711692810059,21.05889511108398,-35.51508331298828,-1,2,1029499.671203875,stationary,2,2024-06-25T20:18:20.387+02:00,2024-06-23T14:58:42.261+02:00,12916,0.8439061,0.0,0.0,10229.28,20,21,2024-06-25T20:17:12.969+02:00,1029579.949623,0,175.5478,92.07455,1719336731.757089,0.0.0.0,10.206.171.234,iphone Senen,1719338624.801324,5,1719336731.748566,1,0.6,0,0.0
2024-06-25T20:19:45.185+02:00,47630,1719339585.000681,40.48036930924352,-4.071631054514875,769.0786,0.0,1.317288,156.6923277921374,180.0,3.370728686958844,4.73948574759979,-9999,1719339585.164914,-14.96999073028564,21.06212615966797,-35.66678619384766,41.83310699462891,41.52600860595703,12.04774570465088,1029583.673773,0.0340576171875,0.0798187255859375,-0.998046875,1029583.673773,6.924218905624002e-05,0.0309302192181348,-0.0010013486025854,1029583.658737,9.407089233398438,23.43861389160156,-143.8447875976562,1029583.671277,-1.210128004740713,0.0341208807354852,-0.0828735755091713,0.0035453171003609,0.031060591340065,-0.0005539212143048,-0.0008397474884986,-0.001281589269638,-0.0027151107788085,XArbitraryCorrectedZVertical,0.0243701970543388,-0.0375785838341298,0.5688249828610452,-0.8212381367449941,0.0339971780776977,0.0827787443995475,-0.9959878921508788,-14.98233127593994,21.1291618347168,-35.40096282958984,-1,2,1029499.671203875,stationary,2,2024-06-25T20:18:20.387+02:00,2024-06-23T14:58:42.261+02:00,12916,0.8439061,0.0,0.0,10229.28,20,21,2024-06-25T20:17:12.969+02:00,1029579.949623,0,175.5478,92.07455,1719336731.757089,0.0.0.0,10.206.171.234,iphone Senen,1719338624.801324,5,1719336731.748566,1,0.6,0,0.0
2024-06-25T20:19:45.244+02:00,47631,1719339585.000681,40.48036930924352,-4.071631054514875,769.0786,0.0,1.317288,156.6923277921374,180.0,3.370728686958844,4.73948574759979,-9999,1719339585.224825,-14.94609928131104,21.24918365478516,-35.52056121826172,41.83855819702148,41.53145980834961,12.047776222229,1029583.733682,0.0365753173828125,0.0856475830078125,-0.994354248046875,1029583.733682,-0.0033816818613559,0.0212829187512397,0.0023329290561378,1029583.719248,9.208724975585938,23.56257629394531,-143.9438323974609,1029583.731186,-1.210238385581625,0.0357589455194167,-0.0828504661768992,-0.0002147016348317,0.0231805220246315,-0.0008712580893188,-1.459568738937378e-05,0.000603012740612,-0.0006034970283508,XArbitraryCorrectedZVertical,0.0238926936905285,-0.0382459510952638,0.5688901741802087,-0.8211762130827879,0.0356286950409412,0.0827557146549224,-0.9959327578544616,-15.05159950256348,21.30803298950195,-35.70606231689453,-1,2,1029499.671203875,stationary,2,2024-06-25T20:18:20.387+02:00,2024-06-23T14:58:42.261+02:00,12916,0.8439061,0.0,0.0,10229.28,20,21,2024-06-25T20:17:12.969+02:00,1029579.949623,0,175.5478,92.07455,1719336731.757089,0.0.0.0,10.206.171.234,iphone Senen,1719338624.801324,5,1719336731.748566,1,0.6,0,0.0
2024-06-25T20:19:45.311+02:00,47632,1719339585.000681,40.48036930924352,-4.071631054514875,769.0786,0.0,1.317288,156.6923277921374,180.0,3.370728686958844,4.73948574759979,-9999,1719339585.304732,-15.00253391265869,21.19258117675781,-35.90203094482422,41.85694885253906,41.54985046386719,12.04775333404541,1029583.793591,0.04119873046875,0.0818328857421875,-0.99871826171875,1029583.793591,0.001097488682717,-0.0046988814137876,-0.0020394488237798,1029583.779759,9.351531982421877,23.32603454589844,-144.1723022460938,1029583.791095,-1.210513909608747,0.0363505642308923,-0.0829456384364877,-0.0043258215300738,-0.00151507940609,-0.0029396149329841,0.0019294433295726,-0.0018416866660118,-0.0026620030403137,XArbitraryCorrectedZVertical,0.0237582193260886,-0.038519151062318,0.5690099391495461,-0.8210842803906065,0.0362176112830638,0.0828505605459213,-0.9959036707878112,-15.00253391265869,21.19258117675781,-35.90203094482422,-1,2,1029499.671203875,stationary,2,2024-06-25T20:18:20.387+02:00,2024-06-23T14:58:42.261+02:00,12916,0.8439061,0.0,0.0,10229.28,20,21,2024-06-25T20:17:12.969+02:00,1029581.014887,0,175.5557,92.07447,1719336731.757089,0.0.0.0,10.206.171.234,iphone Senen,1719338624.801324,5,1719336731.748566,1,0.6,0,0.0
2024-06-25T20:19:45.364+02:00,47633,1719339585.000681,40.48036930924352,-4.071631054514875,769.0786,0.0,1.317288,156.6923277921374,180.0,3.370728686958844,4.73948574759979,-9999,1719339585.344584,-15.08215045928955,21.20874786376953,-35.75769805908203,41.87558746337891,41.56848907470703,12.0477123260498,1029583.853501,0.0370941162109375,0.08233642578125,-0.9939117431640624,1029583.853501,0.0033603766933083,-0.0172199998050928,0.000557133287657,1029583.84027,9.30908203125,23.5196533203125,-143.994384765625,1029583.851004,-1.21096042444567,0.0357792321502672,-0.0827709767448582,0.0029248197097331,-0.0155635504052043,0.0002526361495256,0.0005295388400554,-0.0015150308609008,-3.30805778503418e-05,XArbitraryCorrectedZVertical,0.0238404485769244,-0.0382403269780463,0.5691871888665082,-0.8209721688501953,0.0356491319835186,0.0826765000820159,-0.9959385991096495,-15.08337306976318,21.19070053100586,-35.87407684326172,-1,2,1029499.671203875,stationary,2,2024-06-25T20:18:20.387+02:00,2024-06-23T14:58:42.261+02:00,12916,0.8439061,0.0,0.0,10229.28,20,21,2024-06-25T20:17:12.969+02:00,1029581.014887,0,175.5557,92.07447,1719336731.757089,0.0.0.0,10.206.171.234,iphone Senen,1719338624.801324,5,1719336731.748566,1,0.6,0,0.0
2024-06-25T20:19:45.424+02:00,47634,1719339585.000681,40.48036930924352,-4.071631054514875,769.0786,0.0,1.317288,156.6923277921374,180.0,3.370728686958844,4.73948574759979,-9999,1719339585.404496,-14.94459533691406,21.21720123291016,-35.71260833740234,41.88777923583984,41.58068084716797,12.0476655960083,1029583.91341,0.0360260009765625,0.082305908203125,-1.000564575195312,1029583.91341,0.000101466437627,-0.0125365648418664,0.0032141690608114,1029583.900784,9.360641479492188,23.175048828125,-143.9721374511719,1029583.910913,-1.211020661031138,0.035017786681968,-0.0828326540796544,-0.0011625452898442,-0.0105929533019661,0.0016745972679927,0.0030123218894004,0.0001935139298439,-0.001796543598175,XArbitraryCorrectedZVertical,0.0240813493608899,-0.0379460062336789,0.5692025263816701,-0.8209680898111529,0.034890592098236,0.0827379673719406,-0.9959603548049928,-15.05887222290039,21.14138412475586,-35.61515045166016,-1,2,1029499.671203875,stationary,2,2024-06-25T20:18:20.387+02:00,2024-06-23T14:58:42.261+02:00,12916,0.8439061,0.0,0.0,10229.28,20,21,2024-06-25T20:17:12.969+02:00,1029581.014887,0,175.5557,92.07447,1719336731.757089,0.0.0.0,10.206.171.234,iphone Senen,1719338624.801324,5,1719336731.748566,1,0.6,0,0.0
2024-06-25T20:19:45.484+02:00,47635,1719339585.000681,40.48036930924352,-4.071631054514875,769.0786,0.0,1.317288,156.6923277921374,180.0,3.370728686958844,4.73948574759979,-9999,1719339585.464457,-15.09526824951172,21.24470138549805,-35.88628387451172,41.88879776000977,41.58169937133789,12.04764938354492,1029583.973319,0.03338623046875,0.080841064453125,-1.000106811523438,1029583.973319,0.0006077333819121,-0.0087724523618817,0.0003094593121204,1029583.961295,9.394393920898438,23.51820373535156,-144.1869354248047,1029583.970822,-1.211151899394104,0.0346399793266188,-0.0828461970978767,-0.0001448984839953,-0.0053697815164923,-0.0011722055496647,-0.0017077885568141,-0.0023376792669296,-0.0025475025177001,XArbitraryCorrectedZVertical,0.0241919576986541,-0.0377963573970757,0.5692517806159477,-0.8209375522885103,0.0345142669975757,0.0827514603734016,-0.9959723949432372,-15.167405128479,21.30127716064453,-36.13027191162109,-1,2,1029499.671203875,stationary,2,2024-06-25T20:18:20.387+02:00,2024-06-23T14:58:42.261+02:00,12916,0.8439061,0.0,0.0,10229.28,20,21,2024-06-25T20:17:12.969+02:00,1029581.014887,0,175.5557,92.07447,1719336731.757089,0.0.0.0,10.206.171.234,iphone Senen,1719338624.801324,5,1719336731.748566,1,0.6,0,0.0
2024-06-25T20:19:45.544+02:00,47636,1719339585.000681,40.48036930924352,-4.071631054514875,769.0786,0.0,1.317288,156.6923277921374,180.0,3.370728686958844,4.73948574759979,-9999,1719339585.524414,-15.1863956451416,21.25704574584961,-35.97472381591797,41.90656661987305,41.59946823120117,12.04758930206299,1029584.033228,0.035675048828125,0.0852508544921875,-0.9935760498046876,1029584.033228,0.0013651363551616,0.0009552759001962,-0.0004423510399647,1029584.021805,9.22784423828125,23.30044555664062,-143.9067687988281,1029584.030732,-1.211437984099547,0.0346719418055541,-0.0827919765031552,-0.0021709254942834,0.0039519118145108,-0.0033387204166501,4.550069570541382e-05,0.0003866478800773,0.0024149417877197,XArbitraryCorrectedZVertical,0.0241551764750242,-0.0377975290631816,0.5693698332416445,-0.8208567680068962,0.0345462560653686,0.0826974287629127,-0.9959757328033448,-15.1311616897583,21.08779907226562,-35.71131134033203,-1,2,1029499.671203875,stationary,2,2024-06-25T20:18:20.387+02:00,2024-06-23T14:58:42.261+02:00,12916,0.8439061,0.0,0.0,10229.28,20,21,2024-06-25T20:17:12.969+02:00,1029581.014887,0,175.5557,92.07447,1719336731.757089,0.0.0.0,10.206.171.234,iphone Senen,1719338624.801324,5,1719336731.748566,1,0.6,0,0.0
2024-06-25T20:19:45.604+02:00,47637,1719339585.000681,40.48036930924352,-4.071631054514875,769.0786,0.0,1.317288,156.6923277921374,180.0,3.370728686958844,4.73948574759979,-9999,1719339585.584289,-15.18990802764893,21.20368576049805,-35.97797393798828,41.92480087280273,41.61770248413086,12.04755783081055,1029584.093137,0.0369110107421875,0.0805206298828125,-1.001312255859375,1029584.093137,0.00281442864798,0.013726464472711,-0.0004708468914031,1029584.082317,9.184112548828123,23.33848571777344,-144.0512847900391,1029584.090641,-1.211805357139396,0.0351254826654547,-0.0828912736043541,0.0032193404622375,0.0130099710077047,5.721807247027755e-05,0.0026305764913558,-0.0015738829970359,-0.0067490339279174,XArbitraryCorrectedZVertical,0.0240598729390158,-0.0380162981701798,0.5695255930327046,-0.8207415096045667,0.0349976792931556,0.0827963799238205,-0.995951771736145,-15.16344738006592,21.09982681274414,-35.81562042236328,-1,2,1029499.671203875,stationary,2,2024-06-25T20:18:20.387+02:00,2024-06-23T14:58:42.261+02:00,12916,0.8439061,0.0,0.0,10229.28,20,21,2024-06-25T20:17:12.969+02:00,1029581.014887,0,175.5557,92.07447,1719336731.757089,0.0.0.0,10.206.171.234,iphone Senen,1719338624.801324,5,1719336731.748566,1,0.6,0,0.0
2024-06-25T20:19:45.664+02:00,47638,1719339585.000681,40.48036930924352,-4.071631054514875,769.0786,0.0,1.317288,156.6923277921374,180.0,3.370728686958844,4.73948574759979,-9999,1719339585.644181,-15.01927185058594,21.28561401367188,-35.91805267333984,41.9299201965332,41.62282180786133,12.04752826690674,1029584.153046,0.0341339111328125,0.0830230712890625,-0.993377685546875,1029584.153046,-0.0013733921805396,0.0170554164797067,0.001513208146207,1029584.142827,9.364212036132812,23.41586303710938,-144.0979156494141,1029584.15055,-1.21183013384111,0.0362393924979908,-0.0827921696230477,-0.0014456941280514,0.019136106595397,0.0009267147979699,-0.0021564699709415,-0.0001018270850181,0.0028325915336608,XArbitraryCorrectedZVertical,0.0237014810375788,-0.0384455468825263,0.5695495223144564,-0.8207152223049266,0.0361073575913906,0.0826976150274276,-0.9959203600883484,-14.98604106903076,21.17849731445312,-35.83193206787109,-1,2,1029499.671203875,stationary,2,2024-06-25T20:18:20.387+02:00,2024-06-23T14:58:42.261+02:00,12916,0.8439061,0.0,0.0,10229.28,20,21,2024-06-25T20:17:12.969+02:00,1029581.014887,0,175.5557,92.07447,1719336731.757089,0.0.0.0,10.206.171.234,iphone Senen,1719338624.801324,5,1719336731.748566,1,0.6,0,0.0
2024-06-25T20:19:45.724+02:00,47639,1719339585.000681,40.48036930924352,-4.071631054514875,769.0786,0.0,1.317288,156.6923277921374,180.0,3.370728686958844,4.73948574759979,-9999,1719339585.704125,-14.88686561584473,21.1780891418457,-35.67284393310547,41.94499206542969,41.63789367675781,12.04751300811768,1029584.212956,0.042724609375,0.082305908203125,-1.002273559570312,1029584.212956,0.0033808830194175,0.0048685246147215,-0.0002585929469205,1029584.203339,9.2630615234375,23.4678955078125,-144.3310546875,1029584.210459,-1.212154373292935,0.0370143570864094,-0.0828932455474629,0.0021320532541722,0.0046719117090106,-0.0027705337852239,-2.878531813621521e-05,0.0005451142787933,-0.0050927996635437,XArbitraryCorrectedZVertical,0.0235160197570145,-0.0387960921668798,0.5696912902834339,-0.8206056202604851,0.0368788391351699,0.082798346877098,-0.9958837032318116,-15.02071857452393,21.18511962890625,-35.92891693115234,-1,2,1029499.671203875,stationary,2,2024-06-25T20:18:20.387+02:00,2024-06-23T14:58:42.261+02:00,12916,0.8439061,0.0,0.0,10229.28,20,21,2024-06-25T20:17:12.969+02:00,1029581.014887,0,175.5557,92.07447,1719336731.757089,0.0.0.0,10.206.171.234,iphone Senen,1719338624.801324,5,1719336731.748566,1,0.6,0,0.0
2024-06-25T20:19:45.791+02:00,47640,1719339585.000681,40.48036930924352,-4.071631054514875,769.0786,0.0,1.317288,156.6923277921374,180.0,3.370728686958844,4.73948574759979,-9999,1719339585.784018,-15.06516647338867,21.18036270141602,-35.87989044189453,41.96672439575195,41.65962600708008,12.04744911193848,1029584.272865,0.03680419921875,0.081817626953125,-0.9912261962890624,1029584.272865,-0.0025212145410478,-0.0068027786910533,0.0051867724396288,1029584.26385,9.425933837890623,23.45834350585938,-143.8554992675781,1029584.270368,-1.212401242864445,0.0369705723088843,-0.0826818099311931,0.0020661070011556,-0.0060988198965787,0.0012970292009413,0.0012196190655231,-0.0002817660570144,0.0040968060493469,XArbitraryCorrectedZVertical,0.0234368668472142,-0.038720928529923,0.5697929557698177,-0.8205408111771567,0.0368358790874481,0.0825876370072364,-0.9959027767181396,-14.954514503479,21.19136047363281,-35.65915679931641,-1,2,1029499.671203875,stationary,2,2024-06-25T20:18:20.387+02:00,2024-06-23T14:58:42.261+02:00,12916,0.8439061,0.0,0.0,10229.28,20,21,2024-06-25T20:17:12.969+02:00,1029581.014887,0,175.5557,92.07447,1719336731.757089,0.0.0.0,10.206.171.234,iphone Senen,1719338624.801324,5,1719336731.748566,1,0.6,0,0.0
2024-06-25T20:19:45.844+02:00,47641,1719339585.000681,40.48036930924352,-4.071631054514875,769.0786,0.0,1.317288,156.6923277921374,180.0,3.370728686958844,4.73948574759979,-9999,1719339585.823887,-15.04337406158447,21.27459716796875,-36.06780242919922,41.96785354614258,41.6607551574707,12.04740905761719,1029584.332774,0.0380706787109375,0.08477783203125,-0.9996795654296876,1029584.332774,-0.0011936287628486,-0.0081703122705221,0.0054538873955607,1029584.324363,9.254989624023438,23.79362487792969,-144.4979095458984,1029584.330277,-1.212405885977305,0.0366362259421633,-0.0828762440954604,-0.001452910946682,-0.0059460350312292,0.0031657090876251,0.0008055120706558,0.0014623329043388,-0.0014764666557312,XArbitraryCorrectedZVertical,0.0236118871115709,-0.0386390766615571,0.5697900862750572,-0.82054176033943,0.0365023128688335,0.0827814042568206,-0.9958990216255188,-15.07103729248047,21.44561004638672,-36.16069793701172,-1,2,1029499.671203875,stationary,2,2024-06-25T20:18:20.387+02:00,2024-06-23T14:58:42.261+02:00,12916,0.8439061,0.0,0.0,10229.28,20,21,2024-06-25T20:17:12.969+02:00,1029581.014887,0,175.5557,92.07447,1719336731.757089,0.0.0.0,10.206.171.234,iphone Senen,1719338624.801324,5,1719336731.748566,1,0.6,0,0.0
2024-06-25T20:19:45.903+02:00,47642,1719339585.000681,40.48036930924352,-4.071631054514875,769.0786,0.0,1.317288,156.6923277921374,180.0,3.370728686958844,4.73948574759979,-9999,1719339585.883838,-14.87126922607422,21.03935623168945,-35.91893768310547,41.96768569946289,41.66058731079102,12.04736518859863,1029584.392683,0.033111572265625,0.07879638671875,-0.998016357421875,1029584.392683,0.0069636334665119,0.0056078182533383,-0.0009845705935731,1029584.384877,9.37847900390625,23.38409423828125,-144.2892150878906,1029584.390187,-1.212526259223794,0.0367011328519791,-0.0826584870440566,0.0060097724199295,0.008404716849327,-0.0005171012599021,-0.0010755881667137,-0.0026846677064895,-0.007411777973175,XArbitraryCorrectedZVertical,0.0235016387464622,-0.0386052161936218,0.5698411552189097,-0.8205110992138738,0.0365676134824752,0.082564391195774,-0.99591463804245,-14.93371105194092,21.08568572998047,-35.96903228759766,-1,2,1029499.671203875,stationary,2,2024-06-25T20:18:20.387+02:00,2024-06-23T14:58:42.261+02:00,12916,0.8439061,0.0,0.0,10229.28,20,21,2024-06-25T20:17:12.969+02:00,1029581.014887,0,175.5557,92.07447,1719336731.757089,0.0.0.0,10.206.171.234,iphone Senen,1719338624.801324,5,1719336731.748566,1,0.6,0,0.0
2024-06-25T20:19:45.963+02:00,47643,1719339585.000681,40.48036930924352,-4.071631054514875,769.0786,0.0,1.317288,156.6923277921374,180.0,3.370728686958844,4.73948574759979,-9999,1719339585.943696,-14.88669109344482,21.22484588623047,-35.90795135498047,41.98169708251953,41.67459869384766,12.04732131958008,1029584.452592,0.040008544921875,0.0841064453125,-0.9985504150390624,1029584.452592,-0.0058008972555398,0.0103399893268942,-0.0022375879343599,1029584.445389,9.5948486328125,23.55744934082031,-144.2003784179688,1029584.450096,-1.212728534216283,0.0374739433719205,-0.0828246849670378,-0.0052994452416896,0.0140184564515948,-0.0051187933422625,0.0023972280323505,0.0020325183868408,0.0005262494087219,XArbitraryCorrectedZVertical,0.0233457603427552,-0.0389718782972243,0.5699325129535673,-0.8204346437898518,0.037336740642786,0.0827300250530242,-0.9958723187446594,-14.78331184387207,21.26249313354492,-35.90235137939453,-1,2,1029499.671203875,stationary,2,2024-06-25T20:18:20.387+02:00,2024-06-23T14:58:42.261+02:00,12916,0.8439061,0.0,0.0,10229.28,20,21,2024-06-25T20:17:12.969+02:00,1029581.014887,0,175.5557,92.07447,1719336731.757089,0.0.0.0,10.206.171.234,iphone Senen,1719338624.801324,5,1719336731.748566,1,0.6,0,0.0
2024-06-25T20:19:46.024+02:00,47644,1719339585.000681,40.48036930924352,-4.071631054514875,769.0786,0.0,1.317288,156.6923277921374,180.0,3.370728686958844,4.73948574759979,-9999,1719339586.003681,-15.1347484588623,21.25115585327148,-36.07343292236328,42.00437927246094,41.69728088378906,12.04727745056152,1029584.512501,0.037933349609375,0.082061767578125,-0.999420166015625,1029584.512501,0.0050413641147315,0.0016634104540571,8.28243064461276e-05,1029584.505899,9.255584716796877,23.50967407226562,-144.1972045898438,1029584.510005,-1.213190675779184,0.0380561793187857,-0.0827668070582056,0.0062561146914958,0.0067274579778313,-0.0014888886362314,0.0003218576312065,-0.0025027021765708,-0.0055638551712036,XArbitraryCorrectedZVertical,0.0231470174944623,-0.039199608182315,0.5701290586637329,-0.8202929631865673,0.037916749715805,0.0826723426580429,-0.9958552122116088,-15.06208229064941,21.24956893920898,-35.94271087646484,-1,2,1029499.671203875,stationary,2,2024-06-25T20:18:20.387+02:00,2024-06-23T14:58:42.261+02:00,12916,0.8439061,0.0,0.0,10229.28,20,21,2024-06-25T20:17:12.969+02:00,1029581.014887,0,175.5557,92.07447,1719336731.757089,0.0.0.0,10.206.171.234,iphone Senen,1719338624.801324,5,1719336731.748566,1,0.6,0,0.0
2024-06-25T20:19:46.083+02:00,47645,1719339586.000691,40.48036930924352,-4.071631054514875,769.0786,0.0,1.333336,156.6923277921374,180.0,3.371560547444212,4.73889401735326,-9999,1719339586.063683,-14.97181701660156,21.22336959838867,-36.07764434814453,42.01274108886719,41.70564270019531,12.04721927642822,1029584.57241,0.0410614013671875,0.084136962890625,-0.9951019287109376,1029584.57241,-0.0011488876771181,-0.0141163514927029,0.0029963224660605,1029584.56641,9.207290649414062,23.58320617675781,-144.5835418701172,1029584.569914,-1.213263989348217,0.0378524826376933,-0.082721231948216,-0.0017512096092104,-0.0133859077468514,0.0028616015333682,0.0008297450840473,-0.0004888921976089,0.0027941465377807,XArbitraryCorrectedZVertical,0.0231849377410844,-0.0391039499753786,0.5701569506376883,-0.8202770707345728,0.0377140417695045,0.082626923918724,-0.9958666563034058,-15.08371257781982,21.29236602783203,-36.23247528076172,-1,2,1029499.671203875,stationary,2,2024-06-25T20:18:20.387+02:00,2024-06-23T14:58:42.261+02:00,12916,0.8439061,0.0,0.0,10229.28,20,21,2024-06-25T20:17:12.969+02:00,1029581.014887,0,175.5557,92.07447,1719336731.757089,0.0.0.0,10.206.171.234,iphone Senen,1719338624.801324,5,1719336731.748566,1,0.6,0,0.0
2024-06-25T20:19:46.143+02:00,47646,1719339586.000691,40.48036930924352,-4.071631054514875,769.0786,0.0,1.333336,156.6923277921374,180.0,3.371560547444212,4.73889401735326,-9999,1719339586.123452,-15.13409996032715,21.24614715576172,-36.13855743408203,42.02216339111328,41.71506500244141,12.04716110229492,1029584.632319625,0.0373687744140625,0.0816650390625,-0.9986724853515624,1029584.632319625,0.0011827098205685,-0.0233010612428188,-0.0002543318842072,1029584.626919,9.18487548828125,23.53746032714844,-144.3810424804688,1029584.629823,-1.213530750562195,0.0368142196650092,-0.082782002307283,-0.0010390010429546,-0.022642383351922,0.0024666963145136,0.0020317658782005,0.0001829639077186,-0.0011547803878784,XArbitraryCorrectedZVertical,0.0235007103859969,-0.0386985359591154,0.5702539936615166,-0.8202198102839846,0.0366798639297485,0.0826874822378158,-0.9959002733230592,-15.16581535339355,21.25499725341797,-36.03722381591797,-1,2,1029499.671203875,stationary,2,2024-06-25T20:18:20.387+02:00,2024-06-23T14:58:42.261+02:00,12916,0.8439061,0.0,0.0,10229.28,20,21,2024-06-25T20:17:12.969+02:00,1029581.014887,0,175.5557,92.07447,1719336731.757089,0.0.0.0,10.206.171.234,iphone Senen,1719338624.801324,5,1719336731.748566,1,0.6,0,0.0
2024-06-25T20:19:46.203+02:00,47647,1719339586.000691,40.48036930924352,-4.071631054514875,769.0786,0.0,1.333336,156.6923277921374,180.0,3.371560547444212,4.73889401735326,-9999,1719339586.183344,-15.30284881591797,21.39807891845703,-36.02127838134766,42.04420852661133,41.73711013793945,12.04710388183594,1029584.692228625,0.0338592529296875,0.082427978515625,-0.994140625,1029584.692228625,-0.0021299961954355,-0.0278718452900648,0.0008135957177728,1029584.687423625,9.197128295898438,23.56390380859375,-144.2436218261719,1029584.689731625,-1.213930219502797,0.0353494710083735,-0.0827386570333694,-0.0023367046378552,-0.0253957528620958,-0.0009346256847493,-0.0009346269071102,-0.0014523044228553,0.0006715059280395,XArbitraryCorrectedZVertical,0.0238929412420811,-0.0380902567109268,0.5704006417898174,-0.8201350082049638,0.0352212078869342,0.0826442912220954,-0.9959565401077272,-15.19057083129883,21.271728515625,-35.93666839599609,-1,2,1029499.671203875,stationary,2,2024-06-25T20:18:20.387+02:00,2024-06-23T14:58:42.261+02:00,12916,0.8439061,0.0,0.0,10229.28,20,21,2024-06-25T20:17:12.969+02:00,1029581.014887,0,175.5557,92.07447,1719336731.757089,0.0.0.0,10.206.171.234,iphone Senen,1719338624.801324,5,1719336731.748566,1,0.6,0,0.0
2024-06-25T20:19:46.263+02:00,47648,1719339586.000691,40.48036930924352,-4.071631054514875,769.0786,0.0,1.333336,156.6923277921374,180.0,3.371560547444212,4.73889401735326,-9999,1719339586.243269,-15.3358325958252,21.29097366333008,-35.82523345947266,42.06630706787109,41.75920867919922,12.04704666137695,1029584.752137625,0.035888671875,0.0835418701171875,-1.000106811523438,1029584.752137625,-0.0020570256747305,-0.0196514651179313,0.0043457462452352,1029584.747929625,9.127410888671877,23.56959533691406,-144.0163269042969,1029584.749640625,-1.214221793374822,0.0340042203210493,-0.0828463350662402,-0.0011852085590362,-0.020637821406126,0.0023500500246882,0.001809325069189,0.000683419406414,-0.0025715231895446,XArbitraryCorrectedZVertical,0.0243153242575053,-0.0375727957939737,0.5705034821224692,-0.8200749449257128,0.0338810607790947,0.0827515944838523,-0.9959940910339355,-15.22425079345703,21.28874969482422,-35.77413177490234,-1,2,1029499.671203875,stationary,2,2024-06-25T20:18:20.387+02:00,2024-06-23T14:58:42.261+02:00,12916,0.8439061,0.0,0.0,10229.28,20,21,2024-06-25T20:17:12.969+02:00,1029581.014887,0,175.5557,92.07447,1719336731.757089,0.0.0.0,10.206.171.234,iphone Senen,1719338624.801324,5,1719336731.748566,1,0.6,0,0.0
2024-06-25T20:19:46.323+02:00,47649,1719339586.000691,40.48036930924352,-4.071631054514875,769.0786,0.0,1.333336,156.6923277921374,180.0,3.371560547444212,4.73889401735326,-9999,1719339586.303145,-15.46935939788818,21.45524597167969,-36.07282257080078,42.07419586181641,41.76709747314453,12.04699039459229,1029584.812046625,0.0291748046875,0.0811004638671875,-0.9977569580078124,1029584.812046625,-0.0020852552261203,-0.0055444352328777,0.0003549993562046,1029584.808437625,8.975982666015625,23.77784729003906,-144.1343688964844,1029584.809550625,-1.214394551137843,0.0332132177866165,-0.0828176866215842,0.00194861239288,-0.0055367616005241,-0.0029179076664149,-0.0011107958853244,-0.002294011414051,-0.0028631091117858,XArbitraryCorrectedZVertical,0.0245259813424338,-0.0372424185513131,0.5705648114428058,-0.8200410057193417,0.0330932959914207,0.0827230513095855,-0.9960229396820068,-15.37164402008057,21.47209167480469,-35.93282318115234,-1,2,1029499.671203875,stationary,2,2024-06-25T20:18:20.387+02:00,2024-06-23T14:58:42.261+02:00,12916,0.8439061,0.0,0.0,10229.28,20,21,2024-06-25T20:17:12.969+02:00,1029581.014887,0,175.5557,92.07447,1719336731.757089,0.0.0.0,10.206.171.234,iphone Senen,1719338624.801324,5,1719336731.748566,1,0.6,0,0.0
2024-06-25T20:19:46.383+02:00,47650,1719339586.000691,40.48036930924352,-4.071631054514875,769.0786,0.0,1.333336,156.6923277921374,180.0,3.371560547444212,4.73889401735326,-9999,1719339586.363126,-15.28673648834229,21.35132598876953,-36.03330230712891,42.09217834472656,41.78507995605469,12.04693412780762,1029584.871955625,0.032684326171875,0.0829925537109375,-0.9986724853515624,1029584.871955625,-0.0019534286111593,0.0062509714625775,-0.0034463966730982,1029584.868950625,9.108322143554688,23.65037536621094,-144.2390289306641,1029584.869459625,-1.214690072358225,0.0333320678213334,-0.0829165999832443,-0.0020407764241099,0.0082525117322802,-0.0016804116312414,-0.0010000132024288,-0.0002410858869552,-0.0012120604515075,XArbitraryCorrectedZVertical,0.0245271560748927,-0.0373229368566643,0.5706869404971865,-0.8199523086798141,0.0332114025950431,0.0828216224908828,-0.9960108399391174,-15.24746608734131,21.37968063354492,-35.95914459228516,-1,2,1029499.671203875,stationary,2,2024-06-25T20:18:20.387+02:00,2024-06-23T14:58:42.261+02:00,12916,0.8439061,0.0,0.0,10229.28,20,21,2024-06-25T20:17:12.969+02:00,1029582.080139,0,175.5557,92.07447,1719336731.757089,0.0.0.0,10.206.171.234,iphone Senen,1719338624.801324,5,1719336731.748566,1,0.6,0,0.0
2024-06-25T20:19:46.443+02:00,47651,1719339586.000691,40.48036930924352,-4.071631054514875,769.0786,0.0,1.333336,156.6923277921374,180.0,3.371560547444212,4.73889401735326,-9999,1719339586.423056,-15.21694850921631,21.26617050170898,-36.01576995849609,42.10588455200195,41.79878616333008,12.04687786102295,1029584.931864625,0.033447265625,0.0823211669921875,-0.997589111328125,1029584.931864625,6.072007090551779e-05,0.0190051160752773,0.0021142836194485,1029584.929461625,9.004302978515625,23.49009704589844,-144.6357574462891,1029584.929368625,-1.214966232332338,0.0341587846328961,-0.0828480119375195,0.0046106004156172,0.0176764279603958,-0.0004115236224606,-0.0007097236812114,-0.001820683479309,-0.0041180849075317,XArbitraryCorrectedZVertical,0.0242579112266033,-0.0376456859074015,0.5708105714392339,-0.8198595057906365,0.034035000950098,0.0827532708644866,-0.9959887266159058,-15.29475879669189,21.2375602722168,-36.26560211181641,-1,2,1029499.671203875,stationary,2,2024-06-25T20:18:20.387+02:00,2024-06-23T14:58:42.261+02:00,12916,0.8439061,0.0,0.0,10229.28,20,21,2024-06-25T20:17:12.969+02:00,1029582.080139,0,175.5557,92.07447,1719336731.757089,0.0.0.0,10.206.171.234,iphone Senen,1719338624.801324,5,1719336731.748566,1,0.6,0,0.0
2024-06-25T20:19:46.503+02:00,47652,1719339586.000691,40.48036930924352,-4.071631054514875,769.0786,0.0,1.333336,156.6923277921374,180.0,3.371560547444212,4.73889401735326,-9999,1719339586.482901,-15.12824153900146,21.35844802856445,-36.25324249267578,42.11538696289062,41.80828857421875,12.0468225479126,1029584.991774625,0.034576416015625,0.08172607421875,-0.99407958984375,1029584.991774625,-0.0041800974868237,0.0111900698393583,0.001030909596011,1029584.989976625,9.133071899414062,23.57142639160156,-144.3733978271484,1029584.989277625,-1.215065183258502,0.0353886096766738,-0.0829284944561295,-0.0041205710731446,0.016631294041872,0.0020672969985753,0.0002934299409389,-0.0009243264794349,0.000105082988739,XArbitraryCorrectedZVertical,0.0239380441142342,-0.0381739283876662,0.5708655770693605,-0.8198061605824289,0.0352596342563629,0.0828334763646125,-0.9959394335746764,-15.21626281738281,21.32981491088867,-36.07520294189453,-1,2,1029499.671203875,stationary,2,2024-06-25T20:18:20.387+02:00,2024-06-23T14:58:42.261+02:00,12916,0.8439061,0.0,0.0,10229.28,20,21,2024-06-25T20:17:12.969+02:00,1029582.080139,0,175.5557,92.07447,1719336731.757089,0.0.0.0,10.206.171.234,iphone Senen,1719338624.801324,5,1719336731.748566,1,0.6,0,0.0
2024-06-25T20:19:46.563+02:00,47653,1719339586.000691,40.48036930924352,-4.071631054514875,769.0786,0.0,1.333336,156.6923277921374,180.0,3.371560547444212,4.73889401735326,-9999,1719339586.542845,-15.30302143096924,21.35651779174805,-35.77880096435547,42.1251335144043,41.81803512573242,12.04676723480225,1029585.051683625,0.03790283203125,0.0820770263671875,-1.000503540039062,1029585.051683625,0.0001986718125408,-0.0034498588647693,-0.0003818972909357,1029585.050487625,9.0789794921875,23.58952331542969,-144.5430450439453,1029585.049186625,-1.215310499484157,0.0358312211044714,-0.0830128932917606,0.0013585106935352,-0.0018010715721175,0.0006987322703935,0.0017449557781219,-0.0017103478312492,-0.0020690560340881,XArbitraryCorrectedZVertical,0.0238416311896568,-0.038382316522932,0.5709710247003325,-0.8197258481217586,0.0357001945376396,0.0829175859689712,-0.9959167242050172,-15.33505916595459,21.22863006591797,-35.96752166748047,-1,2,1029499.671203875,stationary,2,2024-06-25T20:18:20.387+02:00,2024-06-23T14:58:42.261+02:00,12916,0.8439061,0.0,0.0,10229.28,20,21,2024-06-25T20:17:12.969+02:00,1029582.080139,0,175.5557,92.07447,1719336731.757089,0.0.0.0,10.206.171.234,iphone Senen,1719338624.801324,5,1719336731.748566,1,0.6,0,0.0
2024-06-25T20:19:46.622+02:00,47654,1719339586.000691,40.48036930924352,-4.071631054514875,769.0786,0.0,1.333336,156.6923277921374,180.0,3.371560547444212,4.73889401735326,-9999,1719339586.602749,-15.27382373809814,21.30894470214844,-35.92714691162109,42.14492034912109,41.83782196044922,12.04671192169189,1029585.111592625,0.035186767578125,0.08209228515625,-0.9931640625,1029585.111592625,0.0008266451768577,-0.0101120229810476,0.0055273906327784,1029585.110999625,9.194869995117188,23.6573486328125,-144.0590362548828,1029585.109095625,-1.215567128629316,0.035492460412074,-0.0828519949063271,3.076434950344265e-05,-0.0089076207950711,0.0043978495523333,0.0008306428790092,-0.0003140345215797,0.0002450942993164,XArbitraryCorrectedZVertical,0.0238674266643026,-0.0382006937451615,0.5710728806167374,-0.8196626852466714,0.0353632867336273,0.0827572420239448,-0.9959421157836914,-15.22750091552734,21.21429443359375,-35.93587493896484,-1,2,1029499.671203875,stationary,2,2024-06-25T20:18:20.387+02:00,2024-06-23T14:58:42.261+02:00,12916,0.8439061,0.0,0.0,10229.28,20,21,2024-06-25T20:17:12.969+02:00,1029582.080139,0,175.5557,92.07447,1719336731.757089,0.0.0.0,10.206.171.234,iphone Senen,1719338624.801324,5,1719336731.748566,1,0.6,0,0.0
2024-06-25T20:19:46.682+02:00,47655,1719339586.000691,40.48036930924352,-4.071631054514875,769.0786,0.0,1.333336,156.6923277921374,180.0,3.371560547444212,4.73889401735326,-9999,1719339586.663066,-15.08396148681641,21.07086563110352,-35.78098297119141,42.14040756225586,41.83330917358398,12.04667186737061,1029585.171501625,0.033843994140625,0.083404541015625,-0.9962005615234376,1029585.171501625,-0.0034972631838172,-0.0053894389420747,0.0035979305393993,1029585.171508625,9.287612915039062,23.44694519042969,-144.3176727294922,1029585.169005625,-1.215524250444495,0.0351244531806064,-0.082975467934342,-0.0018243672093376,-0.0053166570141911,-0.0010201147524639,-0.0006182752549648,-0.0008795857429504,-0.0022393465042114,XArbitraryCorrectedZVertical,0.0240239764708824,-0.0380845419330153,0.5710503437049054,-0.8196791624935525,0.0349964089691638,0.082880288362503,-0.9959448575973512,-15.06768894195557,21.09494781494141,-35.81027984619141,-1,2,1029499.671203875,stationary,2,2024-06-25T20:18:20.387+02:00,2024-06-23T14:58:42.261+02:00,12916,0.8439061,0.0,0.0,10229.28,20,21,2024-06-25T20:17:12.969+02:00,1029582.080139,0,175.5557,92.07447,1719336731.757089,0.0.0.0,10.206.171.234,iphone Senen,1719338624.801324,5,1719336731.748566,1,0.6,0,0.0
2024-06-25T20:19:46.742+02:00,47656,1719339586.000691,40.48036930924352,-4.071631054514875,769.0786,0.0,1.333336,156.6923277921374,180.0,3.371560547444212,4.73889401735326,-9999,1719339586.722638,-14.96366024017334,21.14192199707031,-35.85674285888672,42.15029907226562,41.84320068359375,12.04663181304932,1029585.231410625,0.03363037109375,0.08197021484375,-0.9988861083984376,1029585.231410625,-0.0001336906861979,0.0011102718999609,-0.0036993969697505,1029585.232019625,9.368408203125,23.30886840820312,-144.044677734375,1029585.228914625,-1.215663863301179,0.0350109364710527,-0.0829953563733071,0.0011279848404228,0.0008244769414886,-0.0031095421873033,-0.0009018927812576,-0.0032645314931869,-0.0053498148918151,XArbitraryCorrectedZVertical,0.0240618911430408,-0.0380453686858681,0.5711061169499038,-0.819640932504335,0.0348832979798317,0.0829001069068908,-0.9959471225738524,-14.94253063201904,21.15370559692383,-35.86481475830078,-1,2,1029499.671203875,stationary,2,2024-06-25T20:18:20.387+02:00,2024-06-23T14:58:42.261+02:00,12916,0.8439061,0.0,0.0,10229.28,20,21,2024-06-25T20:17:12.969+02:00,1029582.080139,0,175.5557,92.07447,1719336731.757089,0.0.0.0,10.206.171.234,iphone Senen,1719338624.801324,5,1719336731.748566,1,0.6,0,0.0
2024-06-25T20:19:46.802+02:00,47657,1719339586.000691,40.48036930924352,-4.071631054514875,769.0786,0.0,1.333336,156.6923277921374,180.0,3.371560547444212,4.73889401735326,-9999,1719339586.782435,-15.17617702484131,21.22478866577148,-35.91857147216797,42.15989685058594,41.85279846191406,12.04659271240234,1029585.291319625,0.03546142578125,0.0829620361328125,-0.99871826171875,1029585.291319625,-0.0049699912779033,0.0001339570007985,-0.001620799768716,1029585.292529625,9.168045043945312,23.5067138671875,-143.8623199462891,1029585.288823625,-1.215846128276163,0.035161170237456,-0.0830154652628701,-0.0027265159878879,0.0042037745006382,-0.00206785579212,6.243586540222168e-05,-0.0007058233022689,-0.0013437271118164,XArbitraryCorrectedZVertical,0.0240237685976901,-0.0381148505817116,0.5711825013870353,-0.8195857250583346,0.0350328609347343,0.0829201489686965,-0.9959402084350586,-15.08037662506104,21.21964263916016,-35.81768035888672,-1,2,1029499.671203875,stationary,2,2024-06-25T20:18:20.387+02:00,2024-06-23T14:58:42.261+02:00,12916,0.8439061,0.0,0.0,10229.28,20,21,2024-06-25T20:17:12.969+02:00,1029582.080139,0,175.5557,92.07447,1719336731.757089,0.0.0.0,10.206.171.234,iphone Senen,1719338624.801324,5,1719336731.748566,1,0.6,0,0.0
2024-06-25T20:19:46.862+02:00,47658,1719339586.000691,40.48036930924352,-4.071631054514875,769.0786,0.0,1.333336,156.6923277921374,180.0,3.371560547444212,4.73889401735326,-9999,1719339586.84238,-15.06774997711182,21.24417495727539,-35.94228363037109,42.16299438476562,41.85589599609375,12.04656887054443,1029585.351228625,0.038116455078125,0.0828399658203125,-0.9986419677734376,1029585.351228625,1.597896698513068e-05,-0.0111634386703372,0.0008364989189431,1029585.353038625,9.18603515625,23.60984802246094,-144.1398468017578,1029585.348732625,-1.215875116864568,0.0349941193280295,-0.0830418946490199,-0.0004290842334739,-0.0069772228598594,0.0011483519338071,0.0018463172018527,-0.0001523271203041,-0.0009890794754028,XArbitraryCorrectedZVertical,0.0240817657330129,-0.0380542809862183,0.5711922666919981,-0.8195799209557562,0.0348664112389087,0.0829464867711067,-0.9959439039230348,-15.12553596496582,21.18116760253906,-35.87529754638672,-1,2,1029499.671203875,stationary,2,2024-06-25T20:18:20.387+02:00,2024-06-23T14:58:42.261+02:00,12916,0.8439061,0.0,0.0,10229.28,20,21,2024-06-25T20:17:12.969+02:00,1029582.080139,0,175.5557,92.07447,1719336731.757089,0.0.0.0,10.206.171.234,iphone Senen,1719338624.801324,5,1719336731.748566,1,0.6,0,0.0
2024-06-25T20:19:46.922+02:00,47659,1719339586.000691,40.48036930924352,-4.071631054514875,769.0786,0.0,1.333336,156.6923277921374,180.0,3.371560547444212,4.73889401735326,-9999,1719339586.902271,-15.19214534759521,21.2860107421875,-35.74810028076172,42.1568489074707,41.84975051879883,12.0465145111084,1029585.411138625,0.03436279296875,0.081298828125,-0.9951324462890624,1029585.411138625,-0.0012157330056652,-0.0276846252381801,0.0015757924411445,1029585.413547625,9.116287231445312,23.52293395996094,-144.2364196777344,1029585.408641625,-1.215716395182173,0.0340497856100446,-0.0829385737090398,0.0018807811429724,-0.0231108218431472,0.0003834587987512,-0.0029355064034461,-0.0016362890601158,0.0021952986717224,XArbitraryCorrectedZVertical,0.0243120658177388,-0.0376359194330657,0.5711162827430155,-0.8196454281391818,0.0339261852204799,0.0828435197472572,-0.99598491191864,-15.18328475952148,21.36898803710938,-35.67061614990234,-1,2,1029499.671203875,stationary,2,2024-06-25T20:18:20.387+02:00,2024-06-23T14:58:42.261+02:00,12916,0.8439061,0.0,0.0,10229.28,20,21,2024-06-25T20:17:12.969+02:00,1029582.080139,0,175.5557,92.07447,1719336731.757089,0.0.0.0,10.206.171.234,iphone Senen,1719338624.801324,5,1719336731.748566,1,0.6,0,0.0
2024-06-25T20:19:46.982+02:00,47660,1719339586.000691,40.48036930924352,-4.071631054514875,769.0786,0.0,1.333336,156.6923277921374,180.0,3.371560547444212,4.73889401735326,-9999,1719339586.962243,-15.12205982208252,21.27931213378906,-35.80095672607422,42.14931869506836,41.84222030639648,12.04646110534668,1029585.471047625,0.034423828125,0.0815887451171875,-1.000869750976562,1029585.471047625,0.0015630092239007,-0.0166080053895711,0.0015148060629144,1029585.474057625,9.430068969726562,23.426513671875,-144.0852813720703,1029585.468550625,-1.215608427076659,0.0327779882396782,-0.0829366188909253,0.0010963215027004,-0.0168569311499595,0.0002928283065557,0.0017186626791954,0.0001204311847686,-0.004582941532135,XArbitraryCorrectedZVertical,0.0246764344834162,-0.037112811931893,0.5710564697632765,-0.8197000502554885,0.0326594710350036,0.0828415751457214,-0.996027410030365,-15.10719680786133,21.22354507446289,-35.85332489013672,-1,2,1029499.671203875,stationary,2,2024-06-25T20:18:20.387+02:00,2024-06-23T14:58:42.261+02:00,12916,0.8439061,0.0,0.0,10229.28,20,21,2024-06-25T20:17:12.969+02:00,1029582.080139,0,175.5557,92.07447,1719336731.757089,0.0.0.0,10.206.171.234,iphone Senen,1719338624.801324,5,1719336731.748566,1,0.6,0,0.0
2024-06-25T20:19:47.042+02:00,47661,1719339587.000702,40.48036930924352,-4.071631054514875,769.0786,0.0,1.335271,156.6923277921374,180.0,3.371431313620397,4.738985960132049,-9999,1719339587.022127,-15.02163600921631,21.15403366088867,-35.86936187744141,42.13595581054688,41.828857421875,12.04643821716309,1029585.530956625,0.0287017822265625,0.082183837890625,-0.998504638671875,1029585.530956625,-0.0024921861477196,0.0112926019355654,0.00495614297688,1029585.504310625,9.353515625,23.40155029296875,-144.1576385498047,1029585.528460625,-1.215295982264494,0.032512166583655,-0.0828804438291836,0.0005535145755857,0.0101879276335239,0.0035530035383999,-0.0009158924221992,-0.0008001551032066,-0.0025401711463928,XArbitraryCorrectedZVertical,0.0247350675456777,-0.0369839877603887,0.5709253961066281,-0.8197954988429891,0.0323948562145233,0.0827855914831161,-0.99604070186615,-15.10392761230469,21.25112915039062,-35.89038848876953,-1,2,1029499.671203875,stationary,2,2024-06-25T20:18:20.387+02:00,2024-06-23T14:58:42.261+02:00,12916,0.8439061,0.0,0.0,10229.28,20,21,2024-06-25T20:17:12.969+02:00,1029582.080139,0,175.5557,92.07447,1719336731.757089,0.0.0.0,10.206.171.234,iphone Senen,1719338624.801324,5,1719336731.748566,1,0.6,0,0.0
2024-06-25T20:19:47.102+02:00,47662,1719339587.000702,40.48036930924352,-4.071631054514875,769.0786,0.0,1.335271,156.6923277921374,180.0,3.371431313620397,4.738985960132049,-9999,1719339587.081827,-15.30250358581543,21.23827743530273,-36.01746368408203,42.13084411621094,41.82374572753906,12.04640007019043,1029585.590865625,0.03704833984375,0.0835418701171875,-0.9958038330078124,1029585.590865625,-0.0042946133762598,0.025320803746581,-0.0031867385841906,1029585.564818625,9.008895874023438,23.49713134765625,-144.3546752929688,1029585.588369625,-1.215338956562263,0.0336644399029717,-0.0829695739286192,-0.0048150988295674,0.0263774655759334,-0.0036017287056893,-0.0009952150285243,-0.0003701746463775,0.0023429989814758,XArbitraryCorrectedZVertical,0.0244418943948971,-0.0374822217314793,0.5709567533328427,-0.8197596658603189,0.0335422977805137,0.0828744173049926,-0.9959953427314758,-15.07224559783936,21.15338134765625,-35.84191131591797,-1,2,1029499.671203875,stationary,2,2024-06-25T20:18:20.387+02:00,2024-06-23T14:58:42.261+02:00,12916,0.8439061,0.0,0.0,10229.28,20,21,2024-06-25T20:17:12.969+02:00,1029582.080139,0,175.5557,92.07447,1719336731.757089,0.0.0.0,10.206.171.234,iphone Senen,1719338624.801324,5,1719336731.748566,1,0.6,0,0.0
2024-06-25T20:19:47.162+02:00,47663,1719339587.000702,40.48036930924352,-4.071631054514875,769.0786,0.0,1.335271,156.6923277921374,180.0,3.371431313620397,4.738985960132049,-9999,1719339587.14181,-14.91338920593262,21.36632919311523,-35.99037933349609,42.14035797119141,41.83325958251953,12.04636192321777,1029585.650774625,0.035858154296875,0.0816497802734375,-0.997589111328125,1029585.650774625,0.001236772048287,0.0178287979215383,-0.005682120565325,1029585.625324625,9.486190795898438,23.70332336425781,-144.3245239257812,1029585.648278625,-1.215565213548246,0.0350269017663714,-0.0830252575635348,0.001211394672282,0.0217480491846799,-0.0072599216364324,0.0004098117351531,-0.0021499097347259,-0.0027588605880737,XArbitraryCorrectedZVertical,0.0240714764462611,-0.0380592426348334,0.5710657328814528,-0.8196681887318635,0.0348991118371486,0.0829299092292785,-0.9959441423416138,-14.9855489730835,21.09558486938477,-35.65824127197266,-1,2,1029499.671203875,stationary,2,2024-06-25T20:18:20.387+02:00,2024-06-23T14:58:42.261+02:00,12916,0.8439061,0.0,0.0,10229.28,20,21,2024-06-25T20:17:12.969+02:00,1029582.080139,0,175.5557,92.07447,1719336731.757089,0.0.0.0,10.206.171.234,iphone Senen,1719338624.801324,5,1719336731.748566,1,0.6,0,0.0
2024-06-25T20:19:47.222+02:00,47664,1719339587.000702,40.48036930924352,-4.071631054514875,769.0786,0.0,1.335271,156.6923277921374,180.0,3.371431313620397,4.738985960132049,-9999,1719339587.201884,-14.96979236602783,21.30410385131836,-35.74953460693359,42.1420783996582,41.83498001098633,12.04635429382324,1029585.710683625,0.03973388671875,0.08203125,-0.9959564208984376,1029585.710683625,0.0035294874105602,0.0002617887221276,0.0038868836127221,1029585.685833625,9.356918334960938,23.54649353027344,-144.0726470947266,1029585.708187625,-1.215475052422763,0.0357106161292647,-0.0828985999091048,0.0018537773285061,0.0017028179718181,0.0024618229363113,0.003634750843048,-0.0004520341753959,0.0003402829170227,XArbitraryCorrectedZVertical,0.0238260169969633,-0.0383022892866408,0.5710375557195685,-0.8196836307427865,0.0355804190039634,0.0828036814928054,-0.9959304928779602,-15.16379451751709,21.35564422607422,-36.00740814208984,-1,2,1029499.671203875,stationary,2,2024-06-25T20:18:20.387+02:00,2024-06-23T14:58:42.261+02:00,12916,0.8439061,0.0,0.0,10229.28,20,21,2024-06-25T20:17:12.969+02:00,1029582.080139,0,175.5557,92.07447,1719336731.757089,0.0.0.0,10.206.171.234,iphone Senen,1719338624.801324,5,1719336731.748566,1,0.6,0,0.0
2024-06-25T20:19:47.281+02:00,47665,1719339587.000702,40.48036930924352,-4.071631054514875,769.0786,0.0,1.335271,156.6923277921374,180.0,3.371431313620397,4.738985960132049,-9999,1719339587.261819,-15.11628532409668,21.36485290527344,-36.09818267822266,42.12520599365234,41.81810760498047,12.04630279541016,1029585.770593625,0.0358734130859375,0.0821075439453125,-0.998382568359375,1029585.710683625,0.0035294874105602,0.0002617887221276,0.0038868836127221,1029585.746340625,9.233413696289062,23.61256408691406,-144.4983520507812,1029585.768096625,-1.215197601365872,0.0352258363250373,-0.0830015002200476,-0.0023056836798787,-0.0168049223721027,0.0022955841850489,0.0027445740997791,0.0009713023900985,0.0014017820358276,XArbitraryCorrectedZVertical,0.0240119370860913,-0.0381295868171526,0.5709175532312096,-0.8197699560462824,0.0350973084568977,0.0829062312841415,-0.9959391355514526,-15.04922962188721,21.21498489379883,-35.96291351318359,-1,2,1029499.671203875,stationary,2,2024-06-25T20:18:20.387+02:00,2024-06-23T14:58:42.261+02:00,12916,0.8439061,0.0,0.0,10229.28,20,21,2024-06-25T20:17:12.969+02:00,1029582.080139,0,175.5557,92.07447,1719336731.757089,0.0.0.0,10.206.171.234,iphone Senen,1719338624.801324,5,1719336731.748566,1,0.6,0,0.0
2024-06-25T20:19:47.341+02:00,47666,1719339587.000702,40.48036930924352,-4.071631054514875,769.0786,0.0,1.335271,156.6923277921374,180.0,3.371431313620397,4.738985960132049,-9999,1719339587.32168,-15.17506694793701,21.38788986206055,-35.85097503662109,42.11960601806641,41.81250762939453,12.04625129699707,1029585.830502625,0.02996826171875,0.0804595947265625,-0.9976806640625,1029585.830502625,0.0013851100811734,-0.0269525218755006,0.0018940401496365,1029585.806846625,9.159530639648438,23.66062927246094,-144.1854248046875,1029585.828005625,-1.215091276617466,0.0339427457032604,-0.0829355524097946,0.0023949563037604,-0.0239047408103942,-0.0018575827125459,-0.0027220845222473,-0.0006109252572059,-0.0039654374122619,XArbitraryCorrectedZVertical,0.0243531407428238,-0.0375835811859043,0.5708587797000307,-0.8198259707689567,0.0338195823132991,0.082840509712696,-0.9959887862205504,-15.01412773132324,21.24190521240234,-36.02466583251953,-1,2,1029499.671203875,stationary,2,2024-06-25T20:18:20.387+02:00,2024-06-23T14:58:42.261+02:00,12916,0.8439061,0.0,0.0,10229.28,20,21,2024-06-25T20:17:12.969+02:00,1029582.080139,0,175.5557,92.07447,1719336731.757089,0.0.0.0,10.206.171.234,iphone Senen,1719338624.801324,5,1719336731.748566,1,0.6,0,0.0
2024-06-25T20:19:47.401+02:00,47667,1719339587.000702,40.48036930924352,-4.071631054514875,769.0786,0.0,1.335271,156.6923277921374,180.0,3.371431313620397,4.738985960132049,-9999,1719339587.381604,-14.98722267150879,21.15827941894531,-35.97003936767578,42.11083221435547,41.80373382568359,12.04619979858398,1029585.890411625,0.0372314453125,0.0840911865234375,-0.999267578125,1029585.890411625,0.002559564076364,-0.0079386169090867,0.0016357135027647,1029585.867354625,9.346725463867188,23.44120788574219,-144.3194427490234,1029585.887914625,-1.214936880909936,0.0329586768658198,-0.08291944379003,-0.0020190726500004,-0.0086411964148283,0.00309539726004,0.0018590800464153,6.125122308731079e-05,0.0003411769866943,XArbitraryCorrectedZVertical,0.0246302802116631,-0.0371737039405839,0.5707835175183223,-0.8198887809737934,0.0328394882380962,0.0828244537115097,-0.9960229396820068,-15.24898147583008,21.26982879638672,-35.75762176513672,-1,2,1029499.671203875,stationary,2,2024-06-25T20:18:20.387+02:00,2024-06-23T14:58:42.261+02:00,12916,0.8439061,0.0,0.0,10229.28,20,21,2024-06-25T20:17:12.969+02:00,1029583.145388,0,175.5531,92.0745,1719336731.757089,0.0.0.0,10.206.171.234,iphone Senen,1719338624.801324,5,1719336731.748566,1,0.6,0,0.0
2024-06-25T20:19:47.461+02:00,47668,1719339587.000702,40.48036930924352,-4.071631054514875,769.0786,0.0,1.335271,156.6923277921374,180.0,3.371431313620397,4.738985960132049,-9999,1719339587.44142,-15.11221694946289,21.16997146606445,-35.58878326416016,42.10520935058594,41.79811096191406,12.04619312286377,1029585.950320625,0.028839111328125,0.0816650390625,-1.004150390625,1029585.950320625,0.0009121326729655,0.0203082002699375,0.0020029633305966,1029585.927861625,9.238037109375,23.46736145019531,-143.8447875976562,1029585.947824625,-1.214827179822691,0.0332705851278678,-0.0830126724763141,0.0021058993879705,0.0215237867087125,0.0026519312523305,-0.0033188834786415,0.0003498122096061,-0.0042086839675903,XArbitraryCorrectedZVertical,0.024581566664361,-0.0373267720141672,0.5707419051734024,-0.8199123032859956,0.0331498980522155,0.0829173624515533,-0.9960049390792848,-14.97372436523438,20.9799919128418,-35.64139556884766,-1,2,1029499.671203875,stationary,2,2024-06-25T20:18:20.387+02:00,2024-06-23T14:58:42.261+02:00,12916,0.8439061,0.0,0.0,10229.28,20,21,2024-06-25T20:17:12.969+02:00,1029583.145388,0,175.5531,92.0745,1719336731.757089,0.0.0.0,10.206.171.234,iphone Senen,1719338624.801324,5,1719336731.748566,1,0.6,0,0.0
2024-06-25T20:19:47.521+02:00,47669,1719339587.000702,40.48036930924352,-4.071631054514875,769.0786,0.0,1.335271,156.6923277921374,180.0,3.371431313620397,4.738985960132049,-9999,1719339587.501259,-15.08904647827148,21.17099380493164,-35.75101470947266,42.10933685302734,41.80223846435547,12.04617214202881,1029586.010229625,0.033416748046875,0.08184814453125,-0.9922637939453124,1029586.010229625,-0.0016828514635562,0.035853337496519,-0.0045968824997544,1029585.988369625,9.28704833984375,23.45620727539062,-143.9854736328125,1029586.007733625,-1.214984258005366,0.0351422060076234,-0.0828186476436697,-0.0012419074773788,0.0364352762699127,-0.0055414335802197,-0.0038255006074905,-0.0025543645024299,0.002716839313507,XArbitraryCorrectedZVertical,0.0239648422508868,-0.0380406692638008,0.5708299599573664,-0.8198363615550776,0.0350145474076271,0.0827240049839019,-0.9959571957588196,-14.97509479522705,21.19919204711914,-35.71918487548828,-1,2,1029499.671203875,stationary,2,2024-06-25T20:18:20.387+02:00,2024-06-23T14:58:42.261+02:00,12916,0.8439061,0.0,0.0,10229.28,20,21,2024-06-25T20:17:12.969+02:00,1029583.145388,0,175.5531,92.0745,1719336731.757089,0.0.0.0,10.206.171.234,iphone Senen,1719338624.801324,5,1719336731.748566,1,0.6,0,0.0
2024-06-25T20:19:47.581+02:00,47670,1719339587.000702,40.48036930924352,-4.071631054514875,769.0786,0.0,1.335271,156.6923277921374,180.0,3.371431313620397,4.738985960132049,-9999,1719339587.561249,-15.0616340637207,21.23059844970703,-35.77805328369141,42.134765625,41.82766723632812,12.04616546630859,1029586.070138625,0.0407867431640625,0.082672119140625,-0.999542236328125,1029586.070138625,-0.0070784157142043,0.0098715387284755,-0.0081476746127009,1029586.048876625,9.2276611328125,23.50938415527344,-144.134033203125,1029586.067642625,-1.215549339478242,0.03664590201876,-0.0831634816154149,-0.007533015217632,0.0101871406659483,-0.0116354534402489,0.0051454976201057,0.0009471997618675,0.0006356239318847,XArbitraryCorrectedZVertical,0.0236662059437175,-0.0387619427223736,0.571077914200565,-0.8196386441488069,0.0365110784769058,0.0830676555633544,-0.99587482213974,-15.0990047454834,21.27075576782227,-35.91561126708984,-1,2,1029499.671203875,stationary,2,2024-06-25T20:18:20.387+02:00,2024-06-23T14:58:42.261+02:00,12916,0.8439061,0.0,0.0,10229.28,20,21,2024-06-25T20:17:12.969+02:00,1029583.145388,0,175.5531,92.0745,1719336731.757089,0.0.0.0,10.206.171.234,iphone Senen,1719338624.801324,5,1719336731.748566,1,0.6,0,0.0
2024-06-25T20:19:47.641+02:00,47671,1719339587.000702,40.48036930924352,-4.071631054514875,769.0786,0.0,1.335271,156.6923277921374,180.0,3.371431313620397,4.738985960132049,-9999,1719339587.621211,-14.89520740509033,21.16889953613281,-35.92754364013672,42.15459823608398,41.84749984741211,12.0461311340332,1029586.130048625,0.0384368896484375,0.0817718505859375,-0.998260498046875,1029586.130048625,0.0104347979649901,-0.0135672073811292,0.0095972334966063,1029586.109380625,9.47784423828125,23.45259094238281,-144.2735137939453,1029586.127551625,-1.215676143162657,0.0366267973995014,-0.0829827312306049,0.0103023899719119,-0.0088347773998975,0.0043010022491216,0.0050419084727764,0.0001660287380218,-0.0093279480934143,XArbitraryCorrectedZVertical,0.0235950536031562,-0.0387041103456626,0.5711304373210514,-0.8196068414980718,0.0364926010370254,0.0828875228762626,-0.9958905577659608,-14.96474742889404,21.04482269287109,-35.80022430419922,-1,2,1029499.671203875,stationary,2,2024-06-25T20:18:20.387+02:00,2024-06-23T14:58:42.261+02:00,12916,0.8439061,0.0,0.0,10229.28,20,21,2024-06-25T20:17:12.969+02:00,1029583.145388,0,175.5531,92.0745,1719336731.757089,0.0.0.0,10.206.171.234,iphone Senen,1719338624.801324,5,1719336731.748566,1,0.6,0,0.0
2024-06-25T20:19:47.701+02:00,47672,1719339587.000702,40.48036930924352,-4.071631054514875,769.0786,0.0,1.335271,156.6923277921374,180.0,3.371431313620397,4.738985960132049,-9999,1719339587.681081,-14.99856472015381,21.25812911987305,-35.79517364501953,42.1248664855957,41.81776809692383,12.04613971710205,1029586.189957625,0.0352935791015625,0.081390380859375,-0.9958038330078124,1029586.189957625,-0.0063588297925889,-0.0198333598673343,0.0085370289161801,1029586.169886625,9.3375244140625,23.55264282226562,-144.0305480957031,1029586.187460625,-1.215058802524349,0.0359715885063329,-0.0830569002898846,-0.0079887844622135,-0.0177164413034915,0.0092865405604243,0.0003083012998104,-0.0005029737949371,0.0048649907112121,XArbitraryCorrectedZVertical,0.0238244529997614,-0.0384493851853517,0.5708693309458881,-0.8197940508857853,0.0358398556709289,0.0829614400863647,-0.9959080815315248,-14.99304962158203,21.23808288574219,-35.56424713134766,-1,2,1029499.671203875,stationary,2,2024-06-25T20:18:20.387+02:00,2024-06-23T14:58:42.261+02:00,12916,0.8439061,0.0,0.0,10229.28,20,21,2024-06-25T20:17:12.969+02:00,1029583.145388,0,175.5531,92.0745,1719336731.757089,0.0.0.0,10.206.171.234,iphone Senen,1719338624.801324,5,1719336731.748566,1,0.6,0,0.0
2024-06-25T20:19:47.761+02:00,47673,1719339587.000702,40.48036930924352,-4.071631054514875,769.0786,0.0,1.335271,156.6923277921374,180.0,3.371431313620397,4.738985960132049,-9999,1719339587.741007,-15.01383209228516,21.16231155395508,-35.99227142333984,42.11078643798828,41.80368804931641,12.04613399505615,1029586.249866625,0.0327606201171875,0.08197021484375,-1.00079345703125,1029586.249866625,0.0015116102294996,-0.020451745018363,-0.0042157839052379,1029586.230394625,9.31524658203125,23.46916198730469,-144.3540649414062,1029586.247369625,-1.21502339468469,0.0349882637098032,-0.0831315157254984,0.0059634600766003,-0.0181859247386455,-0.0055054728873074,-0.0017791837453842,-0.0023015886545181,-0.0047804713249206,XArbitraryCorrectedZVertical,0.0241364146812109,-0.0380671474050707,0.570842695811336,-0.819821246826364,0.0348603203892707,0.083035796880722,-0.995936632156372,-14.93365669250488,21.10256958007812,-35.73680877685547,-1,2,1029499.671203875,stationary,2,2024-06-25T20:18:20.387+02:00,2024-06-23T14:58:42.261+02:00,12916,0.8439061,0.0,0.0,10229.28,20,21,2024-06-25T20:17:12.969+02:00,1029583.145388,0,175.5531,92.0745,1719336731.757089,0.0.0.0,10.206.171.234,iphone Senen,1719338624.801324,5,1719336731.748566,1,0.6,0,0.0
2024-06-25T20:19:47.821+02:00,47674,1719339587.000702,40.48036930924352,-4.071631054514875,769.0786,0.0,1.335271,156.6923277921374,180.0,3.371431313620397,4.738985960132049,-9999,1719339587.800902,-14.92160320281982,21.16631698608398,-36.08463287353516,42.1317024230957,41.82460403442383,12.04611396789551,1029586.309775625,0.0366058349609375,0.08355712890625,-0.98907470703125,1029586.309775625,-0.0050693270750343,-0.0149587094783783,-0.0018570221727713,1029586.290902625,9.446273803710938,23.46609497070312,-144.4440155029297,1029586.307279625,-1.215393230580258,0.0339543641629288,-0.0829264513101343,-0.0026657390408217,-0.0126942843198776,-0.0040801237337291,0.0002265200018882,-0.0010596215724945,0.0058005452156066,XArbitraryCorrectedZVertical,0.0243404156567271,-0.0375894246705332,0.5709827275906134,-0.8197397976795173,0.0338311791419982,0.0828314423561096,-0.9959891438484192,-14.94072341918945,21.01498413085938,-35.82805633544922,-1,2,1029499.671203875,stationary,2,2024-06-25T20:18:20.387+02:00,2024-06-23T14:58:42.261+02:00,12916,0.8439061,0.0,0.0,10229.28,20,21,2024-06-25T20:17:12.969+02:00,1029583.145388,0,175.5531,92.0745,1719336731.757089,0.0.0.0,10.206.171.234,iphone Senen,1719338624.801324,5,1719336731.748566,1,0.6,0,0.0
2024-06-25T20:19:47.880+02:00,47675,1719339587.000702,40.48036930924352,-4.071631054514875,769.0786,0.0,1.335271,156.6923277921374,180.0,3.371431313620397,4.738985960132049,-9999,1719339587.860853,-15.18100452423096,21.22189712524414,-35.69202423095703,42.14073181152344,41.83363342285156,12.0460786819458,1029586.369684625,0.0376129150390625,0.083282470703125,-1.004287719726562,1029586.369684625,0.0016492956783622,0.0034197650384157,0.0073234266601502,1029586.351411625,9.155853271484377,23.51589965820312,-143.9653930664062,1029586.367188625,-1.2154344060949,0.0336168508214157,-0.0831821293332066,-0.0005160373402759,0.0029204695019871,0.005985343363136,0.0054767206311225,-0.0004751905798912,-0.0086440443992614,XArbitraryCorrectedZVertical,0.0245408960500668,-0.0375244447490957,0.5709942378058056,-0.8197286769828456,0.0334943048655986,0.0830862373113632,-0.9959793090820312,-15.06868362426758,21.1187629699707,-35.86579132080078,-1,2,1029499.671203875,stationary,2,2024-06-25T20:18:20.387+02:00,2024-06-23T14:58:42.261+02:00,12916,0.8439061,0.0,0.0,10229.28,20,21,2024-06-25T20:17:12.969+02:00,1029583.145388,0,175.5531,92.0745,1719336731.757089,0.0.0.0,10.206.171.234,iphone Senen,1719338624.801324,5,1719336731.748566,1,0.6,0,0.0
2024-06-25T20:19:47.940+02:00,47676,1719339587.000702,40.48036930924352,-4.071631054514875,769.0786,0.0,1.335271,156.6923277921374,180.0,3.371431313620397,4.738985960132049,-9999,1719339587.920746,-14.83275890350342,21.10612869262695,-35.80863189697266,42.12266159057617,41.8155632019043,12.04605865478516,1029586.429593625,0.028839111328125,0.080413818359375,-0.99896240234375,1029586.429593625,0.0048046088777482,0.0173686034977436,0.0054592140950262,1029586.411918625,9.569747924804688,23.34173583984375,-144.0630340576172,1029586.427097625,-1.215037312258312,0.0344100304527776,-0.0829677427977739,0.0075601572170853,0.0186333991587162,0.0061627933755517,-0.0054457038640975,-0.0026113912463188,-0.0030989646911621,XArbitraryCorrectedZVertical,0.0242339915111121,-0.0377836388718377,0.5708421703141485,-0.8198319277548285,0.0342848971486091,0.0828725919127464,-0.9959702491760254,-14.89038467407227,21.1838493347168,-35.93030548095703,-1,2,1029499.671203875,stationary,2,2024-06-25T20:18:20.387+02:00,2024-06-23T14:58:42.261+02:00,12916,0.8439061,0.0,0.0,10229.28,20,21,2024-06-25T20:17:12.969+02:00,1029583.145388,0,175.5531,92.0745,1719336731.757089,0.0.0.0,10.206.171.234,iphone Senen,1719338624.801324,5,1719336731.748566,1,0.6,0,0.0
2024-06-25T20:19:48.000+02:00,47677,1719339587.000702,40.48036930924352,-4.071631054514875,769.0786,0.0,1.335271,156.6923277921374,180.0,3.371431313620397,4.738985960132049,-9999,1719339587.980668,-14.94661617279053,21.17527770996094,-35.86251068115234,42.11721038818359,41.81011199951172,12.04605484008789,1029586.489502625,0.0356597900390625,0.0843048095703125,-0.9949951171875,1029586.489502625,-0.0044352286495268,0.024648355320096,-0.0105589013546705,1029586.472427625,9.38555908203125,23.48252868652344,-144.1788787841797,1029586.487006625,-1.215132925675901,0.0358529268365017,-0.0830421087765564,-0.0062391706742346,0.028531290590763,-0.0087097138166427,-0.00045857578516,0.001205489039421,0.0043211579322814,XArbitraryCorrectedZVertical,0.0238508302356719,-0.0383974196847682,0.5708983740602664,-0.8197754419981997,0.0357217229902744,0.0829466953873634,-0.995913565158844,-14.893141746521,21.21416473388672,-36.00348663330078,-1,2,1029499.671203875,stationary,2,2024-06-25T20:18:20.387+02:00,2024-06-23T14:58:42.261+02:00,12916,0.8439061,0.0,0.0,10229.28,20,21,2024-06-25T20:17:12.969+02:00,1029583.145388,0,175.5531,92.0745,1719336731.757089,0.0.0.0,10.206.171.234,iphone Senen,1719338624.801324,5,1719336731.748566,1,0.6,0,0.0
2024-06-25T20:19:48.060+02:00,47678,1719339588.000713,40.48036930924352,-4.071631054514875,769.0786,0.0,1.316607,156.6923277921374,180.0,3.371295699470057,4.739082436455767,-9999,1719339588.046456,-14.87109375,21.05419921875,-35.86859893798828,42.14389419555664,41.83679580688477,12.04606533050537,1029586.549412625,0.037689208984375,0.0815277099609375,-0.99810791015625,1029586.549412625,0.0043571977876126,0.0183545053005218,-0.0022953785955905,1029586.532937625,9.485092163085938,23.38475036621094,-144.1323852539062,1029586.546915625,-1.215645207748622,0.0373172127052447,-0.0829543029812306,0.0055463844910264,0.0215070955455303,-0.0050875972956418,-0.0013220198452472,-0.0016214326024055,-0.0044377446174621,XArbitraryCorrectedZVertical,0.0233868342115997,-0.0389785804269143,0.5711259895296285,-0.8196029059326079,0.0371802560985088,0.0828591957688331,-0.9958674311637878,-14.76584720611572,20.99749755859375,-35.97565460205078,-1,2,1029499.671203875,stationary,2,2024-06-25T20:18:20.387+02:00,2024-06-23T14:58:42.261+02:00,12916,0.8439061,0.0,0.0,10229.28,20,21,2024-06-25T20:17:12.969+02:00,1029583.145388,0,175.5531,92.0745,1719336731.757089,0.0.0.0,10.206.171.234,iphone Senen,1719338624.801324,5,1719336731.748566,1,0.6,0,0.0
2024-06-25T20:19:48.120+02:00,47679,1719339588.000713,40.48036930924352,-4.071631054514875,769.0786,0.0,1.316607,156.6923277921374,180.0,3.371295699470057,4.739082436455767,-9999,1719339588.100418,-14.89881610870361,21.06205749511719,-35.99668121337891,42.14937973022461,41.84228134155273,12.04607582092285,1029586.609321625,0.0431671142578125,0.0837860107421875,-0.9907684326171876,1029586.609321625,-0.0022194783668965,-0.0070105050690472,0.0083929523825645,1029586.593449625,9.378952026367188,23.37603759765625,-144.1981811523438,1029586.606824625,-1.215558924186429,0.0378323338197523,-0.0828980280347848,-0.0021833349019289,-0.002310789655894,0.0058584935031831,0.0061146467924118,-0.000848188996315,0.0039552450180053,XArbitraryCorrectedZVertical,0.0232183362673051,-0.0391726461264019,0.5710968815238658,-0.819618621798707,0.0376934222877025,0.0828031152486801,-0.995852828025818,-14.75621318817139,20.97846984863281,-35.85372161865234,-1,2,1029499.671203875,stationary,2,2024-06-25T20:18:20.387+02:00,2024-06-23T14:58:42.261+02:00,12916,0.8439061,0.0,0.0,10229.28,20,21,2024-06-25T20:17:12.969+02:00,1029583.145388,0,175.5531,92.0745,1719336731.757089,0.0.0.0,10.206.171.234,iphone Senen,1719338624.801324,5,1719336731.748566,1,0.6,0,0.0
2024-06-25T20:19:48.180+02:00,47680,1719339588.000713,40.48036930924352,-4.071631054514875,769.0786,0.0,1.316607,156.6923277921374,180.0,3.371295699470057,4.739082436455767,-9999,1719339588.160427,-14.8965950012207,21.16313552856445,-35.93891143798828,42.12516021728516,41.81806182861328,12.04607200622559,1029586.669231125,0.0360870361328125,0.0822906494140625,-1.002487182617188,1029586.669231125,0.0029760824982076,-0.0300875939428806,0.0035768917296081,1029586.653961125,9.508758544921877,23.44992065429688,-144.1480255126953,1029586.666735125,-1.215060542131551,0.0369477761536649,-0.0830820811983889,-0.0003991774865426,-0.0264844708144664,0.0028975578024983,0.0013656206429004,-0.0009553134441375,-0.0054722428321838,XArbitraryCorrectedZVertical,0.0235561107361147,-0.0388567103020221,0.5708815003706909,-0.8197741048703422,0.0368119552731514,0.0829865336418151,-0.9958705306053162,-14.87874889373779,21.29347229003906,-35.88144683837891,-1,2,1029499.671203875,stationary,2,2024-06-25T20:18:20.387+02:00,2024-06-23T14:58:42.261+02:00,12916,0.8439061,0.0,0.0,10229.28,20,21,2024-06-25T20:17:12.969+02:00,1029583.145388,0,175.5531,92.0745,1719336731.757089,0.0.0.0,10.206.171.234,iphone Senen,1719338624.801324,5,1719336731.748566,1,0.6,0,0.0
2024-06-25T20:19:48.240+02:00,47681,1719339588.000713,40.48036930924352,-4.071631054514875,769.0786,0.0,1.316607,156.6923277921374,180.0,3.371295699470057,4.739082436455767,-9999,1719339588.220407,-14.96888446807861,21.35147094726562,-35.91019439697266,42.10733795166016,41.80023956298828,12.04602336883545,1029586.729140125,0.0350189208984375,0.0817413330078125,-0.99267578125,1029586.729140125,-0.0025755430106073,-0.042391400784254,-0.0027361316606402,1029586.714471125,9.153167724609377,23.5220947265625,-144.2140350341797,1029586.726644125,-1.215011918832363,0.0349264344347824,-0.0829311260795708,-0.0015131249092519,-0.0424147844314575,-0.0036720777861773,-0.0021454319357872,-0.0007438510656356,0.0026540756225585,XArbitraryCorrectedZVertical,0.0240720549604008,-0.0379845883994529,0.5708381827406723,-0.8198301143464158,0.0347993224859237,0.0828360989689827,-0.9959554076194764,-15.24333190917969,21.23050689697266,-35.90532684326172,-1,2,1029499.671203875,stationary,2,2024-06-25T20:18:20.387+02:00,2024-06-23T14:58:42.261+02:00,12916,0.8439061,0.0,0.0,10229.28,20,21,2024-06-25T20:17:12.969+02:00,1029583.145388,0,175.5531,92.0745,1719336731.757089,0.0.0.0,10.206.171.234,iphone Senen,1719338624.801324,5,1719336731.748566,1,0.6,0,0.0
2024-06-25T20:19:48.300+02:00,47682,1719339588.000713,40.48036930924352,-4.071631054514875,769.0786,0.0,1.316607,156.6923277921374,180.0,3.371295699470057,4.739082436455767,-9999,1719339588.280189,-15.17805290222168,21.33245086669922,-35.58388519287109,42.12195587158203,41.81485748291016,12.04600524902344,1029586.789049125,0.036865234375,0.0848236083984375,-0.99920654296875,1029586.789049125,-0.0038336203433573,-0.0243524778634309,0.004471980035305,1029586.774984125,9.208694458007812,23.50439453125,-143.8758697509766,1029586.786553125,-1.215164429936485,0.0328243269031457,-0.0829778316474647,-0.0001906784018501,-0.0241592247039079,0.0024643363431096,0.0071657858788967,0.0023376569151878,-0.001978576183319,XArbitraryCorrectedZVertical,0.0246883559357524,-0.0371380671030417,0.5708748407598255,-0.8198250775987551,0.0327055156230926,0.0828826427459716,-0.9960225224494934,-15.19327640533447,21.14090347290039,-35.70311737060547,-1,2,1029499.671203875,stationary,2,2024-06-25T20:18:20.387+02:00,2024-06-23T14:58:42.261+02:00,12916,0.8439061,0.0,0.0,10229.28,20,21,2024-06-25T20:17:12.969+02:00,1029583.145388,0,175.5531,92.0745,1719336731.757089,0.0.0.0,10.206.171.234,iphone Senen,1719338624.801324,5,1719336731.748566,1,0.6,0,0.0
2024-06-25T20:19:48.360+02:00,47683,1719339588.000713,40.48036930924352,-4.071631054514875,769.0786,0.0,1.316607,156.6923277921374,180.0,3.371295699470057,4.739082436455767,-9999,1719339588.340132,-15.37483215332031,21.44241714477539,-35.62570953369141,42.10718536376953,41.80008697509766,12.04600143432617,1029586.848958125,0.0267333984375,0.080352783203125,-0.99676513671875,1029586.848958125,0.0003659183275885,0.0067061060108244,0.0082813659682869,1029586.835498125,9.052902221679688,23.66342163085938,-144.0894012451172,1029586.846462125,-1.214767671171572,0.0323504280368838,-0.0829640158285176,0.0026307026855647,0.0078867096453905,0.0067622875794768,-0.0027839876711368,-0.0020583644509315,-0.0023282766342163,XArbitraryCorrectedZVertical,0.0248252828488931,-0.0369349480793717,0.5707063943264177,-0.8199474060293064,0.0322335362434387,0.0828688740730285,-0.9960390329360962,-15.27660942077637,21.43614196777344,-35.84584808349609,-1,2,1029499.671203875,stationary,2,2024-06-25T20:18:20.387+02:00,2024-06-23T14:58:42.261+02:00,12916,0.8439061,0.0,0.0,10229.28,20,21,2024-06-25T20:17:12.969+02:00,1029583.145388,0,175.5531,92.0745,1719336731.757089,0.0.0.0,10.206.171.234,iphone Senen,1719338624.801324,5,1719336731.748566,1,0.6,0,0.0
2024-06-25T20:19:48.420+02:00,47684,1719339588.000713,40.48036930924352,-4.071631054514875,769.0786,0.0,1.316607,156.6923277921374,180.0,3.371295699470057,4.739082436455767,-9999,1719339588.400013,-15.16664600372314,21.18765258789062,-35.78885650634766,42.09738159179688,41.790283203125,12.04595375061035,1029586.908868125,0.0325164794921875,0.084747314453125,-0.9971160888671876,1029586.908868125,-0.0013004215434193,0.0235173106193542,-0.0052043492905795,1029586.896008125,9.255325317382812,23.48884582519531,-143.7755126953125,1029586.906371125,-1.214783722378861,0.0334690964855389,-0.0830134735705264,-0.0003573111025616,0.0253971740603447,-0.0076202638447284,-0.002051755785942,0.0015392005443573,-0.0012398958206176,XArbitraryCorrectedZVertical,0.024526058523269,-0.0374078492086943,0.570726526466931,-0.8199209515347663,0.0333476141095161,0.0829181596636772,-0.9959982633590698,-15.02942276000977,21.14960098266602,-35.60536956787109,-1,2,1029499.671203875,stationary,2,2024-06-25T20:18:20.387+02:00,2024-06-23T14:58:42.261+02:00,12916,0.8439061,0.0,0.0,10229.28,20,21,2024-06-25T20:17:12.969+02:00,1029583.145388,0,175.5531,92.0745,1719336731.757089,0.0.0.0,10.206.171.234,iphone Senen,1719338624.801324,5,1719336731.748566,1,0.6,0,0.0
2024-06-25T20:19:48.480+02:00,47685,1719339588.000713,40.48036930924352,-4.071631054514875,769.0786,0.0,1.316607,156.6923277921374,180.0,3.371295699470057,4.739082436455767,-9999,1719339588.459897,-15.00203895568848,21.09006118774414,-35.81858062744141,42.12980270385742,41.82270431518555,12.04596614837646,1029586.968777125,0.0335693359375,0.0803985595703125,-0.9962005615234376,1029586.968777125,0.000637560733594,0.0237263683229684,-0.0079245017841458,1029586.956521125,9.349533081054688,23.315185546875,-143.8948059082031,1029586.966280125,-1.215466636439706,0.0348760008235228,-0.0828768268886925,0.0031325216405093,0.0255127120763063,-0.0104773771017789,0.0002087205648422,-0.0008270666003227,-0.0012917518615722,XArbitraryCorrectedZVertical,0.024055541379168,-0.0379539154206059,0.5710241977877534,-0.8197025466913308,0.0347492508590221,0.0827819854021072,-0.9959616661071776,-14.97952938079834,21.0537223815918,-35.69437408447266,-1,2,1029499.671203875,stationary,2,2024-06-25T20:18:20.387+02:00,2024-06-23T14:58:42.261+02:00,12916,0.8439061,0.0,0.0,10229.28,20,21,2024-06-25T20:17:12.969+02:00,1029584.210595,0,175.5531,92.0745,1719336731.757089,0.0.0.0,10.206.171.234,iphone Senen,1719338624.801324,5,1719336731.748566,1,0.6,0,0.0
2024-06-25T20:19:48.540+02:00,47686,1719339588.000713,40.48036930924352,-4.071631054514875,769.0786,0.0,1.316607,156.6923277921374,180.0,3.371295699470057,4.739082436455767,-9999,1719339588.519919,-15.14757347106934,21.27624130249023,-35.75792694091797,42.15198516845703,41.84488677978516,12.04599285125732,1029587.028686125,0.0418701171875,0.0844573974609375,-0.9988555908203124,1029587.028686125,-0.0009318400407209,0.0070853400975465,0.0021049624774605,1029587.017031125,9.119598388671877,23.64710998535156,-144.4233245849609,1029587.026189125,-1.215679520795555,0.0358685088334907,-0.0830245184903417,0.0002577734121587,0.0088505921885371,0.0025735516101121,0.0039051249623298,0.0006279274821281,-0.0007743835449218,XArbitraryCorrectedZVertical,0.0238286700016797,-0.0384053082315553,0.5711226546243008,-0.8196195143514083,0.035737294703722,0.0829291716217994,-0.9959144592285156,-15.19755077362061,21.34126281738281,-36.01914215087891,-1,2,1029499.671203875,stationary,2,2024-06-25T20:18:20.387+02:00,2024-06-23T14:58:42.261+02:00,12916,0.8439061,0.0,0.0,10229.28,20,21,2024-06-25T20:17:12.969+02:00,1029584.210595,0,175.5531,92.0745,1719336731.757089,0.0.0.0,10.206.171.234,iphone Senen,1719338624.801324,5,1719336731.748566,1,0.6,0,0.0
2024-06-25T20:19:48.600+02:00,47687,1719339588.000713,40.48036930924352,-4.071631054514875,769.0786,0.0,1.316607,156.6923277921374,180.0,3.371295699470057,4.739082436455767,-9999,1719339588.579737,-14.86088275909424,21.04626083374023,-35.72461700439453,42.13349914550781,41.82640075683594,12.04600429534912,1029587.088595125,0.03546142578125,0.0814056396484375,-0.996917724609375,1029587.088595125,0.0001592570333741,-0.0143728135153651,0.0046389601193368,1029587.077541125,9.2418212890625,23.35786437988281,-143.9043273925781,1029587.086099125,-1.215280608872552,0.0357677727767982,-0.0829626457715147,0.001880008727312,-0.0140563827008009,0.003468123730272,0.0038526766002178,0.0003386363387107,-0.0002621412277221,XArbitraryCorrectedZVertical,0.0238397025484814,-0.0383416373540394,0.5709582320305524,-0.8197367869832818,0.0356371514499187,0.0828675106167793,-0.9959231615066528,-15.02851867675781,21.06888580322266,-35.63837432861328,-1,2,1029499.671203875,stationary,2,2024-06-25T20:18:20.387+02:00,2024-06-23T14:58:42.261+02:00,12916,0.8439061,0.0,0.0,10229.28,20,21,2024-06-25T20:17:12.969+02:00,1029584.210595,0,175.5531,92.0745,1719336731.757089,0.0.0.0,10.206.171.234,iphone Senen,1719338624.801324,5,1719336731.748566,1,0.6,0,0.0
2024-06-25T20:19:48.659+02:00,47688,1719339588.000713,40.48036930924352,-4.071631054514875,769.0786,0.0,1.316607,156.6923277921374,180.0,3.371295699470057,4.739082436455767,-9999,1719339588.639672,-15.03004741668701,21.18355941772461,-35.89215850830078,42.12619781494141,41.81909942626953,12.04601669311523,1029587.148504125,0.031707763671875,0.082763671875,-0.9939727783203124,1029587.148504125,-0.0045545380562543,-0.0243948213756084,-0.0022935143206268,1029587.138052125,9.231735229492188,23.52362060546875,-144.3033905029297,1029587.146008125,-1.215266477385117,0.034670354995975,-0.0829012328975642,-0.0022799281869083,-0.0209200214594602,-0.0017607687041163,-0.0019972808659076,-0.001858465373516,-2.014636993408203e-05,XArbitraryCorrectedZVertical,0.0241280584813574,-0.0378741733257972,0.5709395775820266,-0.8197629842196285,0.034544363617897,0.0828063040971756,-0.9959667921066284,-15.08388042449951,21.22654342651367,-35.97154998779297,-1,2,1029499.671203875,stationary,2,2024-06-25T20:18:20.387+02:00,2024-06-23T14:58:42.261+02:00,12916,0.8439061,0.0,0.0,10229.28,20,21,2024-06-25T20:17:12.969+02:00,1029584.210595,0,175.5531,92.0745,1719336731.757089,0.0.0.0,10.206.171.234,iphone Senen,1719338624.801324,5,1719336731.748566,1,0.6,0,0.0
2024-06-25T20:19:48.719+02:00,47689,1719339588.000713,40.48036930924352,-4.071631054514875,769.0786,0.0,1.316607,156.6923277921374,180.0,3.371295699470057,4.739082436455767,-9999,1719339588.699549,-15.01913356781006,21.18558120727539,-35.71688079833984,42.14001846313477,41.83292007446289,12.04598522186279,1029587.208413125,0.038238525390625,0.0827178955078125,-1.002273559570312,1029587.208413125,0.0030668962281197,-0.0134556209668517,-0.0023566312156617,1029587.198559125,9.298202514648438,23.24008178710938,-143.8933258056641,1029587.205917125,-1.215495166337239,0.0335910395445622,-0.0829919920935742,0.0008857712964527,-0.0112205222249031,-0.000340238562785,0.0021449662744998,-0.0010028779506683,-0.0064454078674316,XArbitraryCorrectedZVertical,0.0244691210199032,-0.0374604318458405,0.571019761005994,-0.8197160194827531,0.0334691293537616,0.0828967541456222,-0.9959959387779236,-15.03322410583496,21.02427673339844,-35.62830352783203,-1,2,1029499.671203875,stationary,2,2024-06-25T20:18:20.387+02:00,2024-06-23T14:58:42.261+02:00,12916,0.8439061,0.0,0.0,10229.28,20,21,2024-06-25T20:17:12.969+02:00,1029584.210595,0,175.5531,92.0745,1719336731.757089,0.0.0.0,10.206.171.234,iphone Senen,1719338624.801324,5,1719336731.748566,1,0.6,0,0.0
2024-06-25T20:19:48.779+02:00,47690,1719339588.000713,40.48036930924352,-4.071631054514875,769.0786,0.0,1.316607,156.6923277921374,180.0,3.371295699470057,4.739082436455767,-9999,1719339588.759528,-14.99301719665527,21.07350540161133,-35.75824737548828,42.13816070556641,41.83106231689453,12.04602718353271,1029587.268322125,0.0308074951171875,0.081390380859375,-0.9965362548828124,1029587.268322125,-0.000508930068463,0.0046176551841199,0.0041681132279336,1029587.259071125,9.337738037109377,23.38475036621094,-143.6399536132812,1029587.265826125,-1.215379102216122,0.0334380831731231,-0.0829498292047636,-0.0012971690157428,0.0068609248846769,0.0041824579238891,-0.0022194050252437,-0.0032344087958335,0.002016544342041,XArbitraryCorrectedZVertical,0.0244976639826369,-0.0373843029597964,0.5709705174778834,-0.8197530020952372,0.0333169028162956,0.0828547403216362,-0.996004581451416,-14.99750804901123,21.09587097167969,-35.45882415771484,-1,2,1029499.671203875,stationary,2,2024-06-25T20:18:20.387+02:00,2024-06-23T14:58:42.261+02:00,12916,0.8439061,0.0,0.0,10229.28,20,21,2024-06-25T20:17:12.969+02:00,1029584.210595,0,175.5531,92.0745,1719336731.757089,0.0.0.0,10.206.171.234,iphone Senen,1719338624.801324,5,1719336731.748566,1,0.6,0,0.0
2024-06-25T20:19:48.839+02:00,47691,1719339588.000713,40.48036930924352,-4.071631054514875,769.0786,0.0,1.316607,156.6923277921374,180.0,3.371295699470057,4.739082436455767,-9999,1719339588.819413,-15.02921009063721,21.19568252563477,-35.71804046630859,42.12601089477539,41.81891250610352,12.04605484008789,1029587.328232125,0.03436279296875,0.0813140869140625,-0.9980010986328124,1029587.328232125,-0.000580835447181,0.0211620107293129,-0.0013361079618334,1029587.319581125,9.324234008789062,23.31010437011719,-143.8603668212891,1029587.325735125,-1.215212238832824,0.0344179383549799,-0.0830063660025027,-0.0021470894571393,0.0210647974163293,0.0005579292192123,-0.0024627447128295,0.0008596405386924,-0.0010120272636413,XArbitraryCorrectedZVertical,0.024244275705097,-0.0378000060852979,0.5709137968973155,-0.819780915751987,0.0342926643788814,0.0829110816121101,-0.9959667325019836,-15.01746940612793,21.07724380493164,-35.60506439208984,-1,2,1029499.671203875,stationary,2,2024-06-25T20:18:20.387+02:00,2024-06-23T14:58:42.261+02:00,12916,0.8439061,0.0,0.0,10229.28,20,21,2024-06-25T20:17:12.969+02:00,1029584.210595,0,175.5531,92.0745,1719336731.757089,0.0.0.0,10.206.171.234,iphone Senen,1719338624.801324,5,1719336731.748566,1,0.6,0,0.0
2024-06-25T20:19:48.899+02:00,47692,1719339588.000713,40.48036930924352,-4.071631054514875,769.0786,0.0,1.316607,156.6923277921374,180.0,3.371295699470057,4.739082436455767,-9999,1719339588.879293,-15.07058334350586,21.07749938964844,-35.82349395751953,42.14323425292969,41.83613586425781,12.04605293273926,1029587.388141125,0.034088134765625,0.0818023681640625,-0.9944915771484376,1029587.388141125,-0.000843156769406,0.0260867271572351,-0.0068009146489202,1029587.380089125,9.411666870117188,23.37239074707031,-144.2889556884766,1029587.385644125,-1.215645443032257,0.0359004758684302,-0.0828719438417672,0.0001049872516887,0.026999108493328,-0.0051943152211606,-0.0009184256196022,-0.0012799575924873,-0.0021361708641052,XArbitraryCorrectedZVertical,0.0237576039217646,-0.0383745269846309,0.5711097510046595,-0.8196320220523764,0.035769585520029,0.0827771201729774,-0.9959259629249572,-14.96669578552246,21.08816909790039,-35.94168853759766,-1,2,1029499.671203875,stationary,2,2024-06-25T20:18:20.387+02:00,2024-06-23T14:58:42.261+02:00,12916,0.8439061,0.0,0.0,10229.28,20,21,2024-06-25T20:17:12.969+02:00,1029584.210595,0,175.5531,92.0745,1719336731.757089,0.0.0.0,10.206.171.234,iphone Senen,1719338624.801324,5,1719336731.748566,1,0.6,0,0.0
2024-06-25T20:19:48.959+02:00,47693,1719339588.000713,40.48036930924352,-4.071631054514875,769.0786,0.0,1.316607,156.6923277921374,180.0,3.371295699470057,4.739082436455767,-9999,1719339588.9392,-14.93651676177979,21.06718444824219,-35.76534271240234,42.16841506958008,41.8613166809082,12.04606628417969,1029587.448050125,0.04156494140625,0.081939697265625,-1.000350952148438,1029587.448050125,-0.0002854908525478,0.0179355908185243,-0.0037928740493953,1029587.440595125,9.509536743164062,23.33918762207031,-144.2656860351562,1029587.445553125,-1.216030740075834,0.0373967863580999,-0.0830177998268557,0.0015700166113674,0.0205455347895622,-0.0018933524843305,0.0022305250167846,-0.0014405772089958,-0.0028743147850036,XArbitraryCorrectedZVertical,0.0233826356032113,-0.039033792107587,0.5712846423988615,-0.8194897752984096,0.0372593067586422,0.0829224735498428,-0.9958592057228088,-14.85852432250977,21.06147766113281,-35.90848541259766,-1,2,1029499.671203875,stationary,2,2024-06-25T20:18:20.387+02:00,2024-06-23T14:58:42.261+02:00,12916,0.8439061,0.0,0.0,10229.28,20,21,2024-06-25T20:17:12.969+02:00,1029584.210595,0,175.5531,92.0745,1719336731.757089,0.0.0.0,10.206.171.234,iphone Senen,1719338624.801324,5,1719336731.748566,1,0.6,0,0.0
2024-06-25T20:19:49.019+02:00,47694,1719339588.000713,40.48036930924352,-4.071631054514875,769.0786,0.0,1.316607,156.6923277921374,180.0,3.371295699470057,4.739082436455767,-9999,1719339588.99904,-14.90228843688965,21.04024124145508,-35.86161041259766,42.17101287841797,41.86391448974609,12.04609394073486,1029587.507959125,0.04339599609375,0.0821990966796875,-0.9971466064453124,1029587.507959125,-6.684534309897572e-05,0.0003020024741999,0.0046509443782269,1029587.501101125,9.518524169921877,23.11544799804688,-144.0513916015625,1029587.505463125,-1.215949508935354,0.038084279662264,-0.0829902181275417,-0.0015899844001978,0.004322187975049,0.0076252841390669,0.0043228976428508,-0.0010773912072181,0.0012983083724975,XArbitraryCorrectedZVertical,0.0231765395686458,-0.0393066856772514,0.5712594772129065,-0.8195001080745994,0.0379440300166606,0.0828949883580207,-0.9958356618881226,-14.84235286712646,20.89374923706055,-35.78258514404297,-1,2,1029499.671203875,stationary,2,2024-06-25T20:18:20.387+02:00,2024-06-23T14:58:42.261+02:00,12916,0.8439061,0.0,0.0,10229.28,20,21,2024-06-25T20:17:12.969+02:00,1029584.210595,0,175.5531,92.0745,1719336731.757089,0.0.0.0,10.206.171.234,iphone Senen,1719338624.801324,5,1719336731.748566,1,0.6,0,0.0
2024-06-25T20:19:49.079+02:00,47695,1719339589.000722,40.48036930924352,-4.071631054514875,769.0786,0.0,1.241402,156.6923277921374,180.0,3.370716562512876,4.739494370498843,-9999,1719339589.059263,-14.833740234375,20.98173522949219,-35.62581634521484,42.15287399291992,41.84577560424805,12.0461368560791,1029587.567868125,0.037200927734375,0.0823516845703125,-0.992401123046875,1029587.567868125,-0.003132942598313,-0.0155597850680351,0.0051369713619351,1029587.561611125,9.792724609375,23.18150329589844,-143.7929382324219,1029587.565372125,-1.215608930966332,0.0377781848071362,-0.082908439867324,-0.0050810412503778,-0.0138687686994671,0.0049924752674996,-0.002788309007883,0.0003773942589759,0.0010877847671508,XArbitraryCorrectedZVertical,0.0232370906693695,-0.0391540041306359,0.5711167077832373,-0.819605138508193,0.0376394651830196,0.082813486456871,-0.9958540201187134,-14.66639614105225,20.92906188964844,-35.52310943603516,-1,2,1029499.671203875,stationary,2,2024-06-25T20:18:20.387+02:00,2024-06-23T14:58:42.261+02:00,12916,0.8439061,0.0,0.0,10229.28,20,21,2024-06-25T20:17:12.969+02:00,1029584.210595,0,175.5531,92.0745,1719336731.757089,0.0.0.0,10.206.171.234,iphone Senen,1719338624.801324,5,1719336731.748566,1,0.6,0,0.0
2024-06-25T20:19:49.139+02:00,47696,1719339589.000722,40.48036930924352,-4.071631054514875,769.0786,0.0,1.241402,156.6923277921374,180.0,3.370716562512876,4.739494370498843,-9999,1719339589.11899,-14.7002124786377,21.00191116333008,-35.59329986572266,42.1448974609375,41.83779907226562,12.04617977142334,1029587.627777125,0.0369873046875,0.081787109375,-1.001510620117188,1029587.627777125,0.0051825116388499,-0.018604576587677,-0.0045047369785606,1029587.622123125,9.598068237304688,23.18098449707031,-143.9447937011719,1029587.625281125,-1.215596232331406,0.036923398898127,-0.0829664048601727,0.0035396113526076,-0.0139566538855433,-0.0035860994830727,0.0033731833100318,-0.0026253163814544,-0.0060110688209533,XArbitraryCorrectedZVertical,0.0235052065454733,-0.0388200724000448,0.571101269409022,-0.8196241569944289,0.0367880314588546,0.0828712582588195,-0.9958810210227966,-14.72570610046387,20.91731643676758,-35.63486480712891,-1,2,1029499.671203875,stationary,2,2024-06-25T20:18:20.387+02:00,2024-06-23T14:58:42.261+02:00,12916,0.8439061,0.0,0.0,10229.28,20,21,2024-06-25T20:17:12.969+02:00,1029584.210595,0,175.5531,92.0745,1719336731.757089,0.0.0.0,10.206.171.234,iphone Senen,1719338624.801324,5,1719336731.748566,1,0.6,0,0.0
2024-06-25T20:19:49.199+02:00,47697,1719339589.000722,40.48036930924352,-4.071631054514875,769.0786,0.0,1.241402,156.6923277921374,180.0,3.370716562512876,4.739494370498843,-9999,1719339589.178834,-14.78118991851807,20.97071075439453,-35.60558319091797,42.15687561035156,41.84977722167969,12.04622268676758,1029587.687686625,0.0349273681640625,0.082611083984375,-0.9955291748046876,1029587.687686625,0.0040288302116096,-0.0160878896713256,0.0001818939053919,1029587.682632625,9.43487548828125,23.36842346191406,-144.2903747558594,1029587.685189625,-1.215791389796326,0.0359595305754636,-0.0828128359925057,0.0015949180815368,-0.0147605780512094,-0.0010327768977731,0.0009299293160438,-0.0016788244247436,0.0021085739135742,XArbitraryCorrectedZVertical,0.0237136905176815,-0.0383836199047406,0.5711705356999046,-0.8195904456407196,0.0358285754919052,0.0827182158827781,-0.9959287047386168,-14.91235065460205,21.07761383056641,-35.88388824462891,-1,2,1029499.671203875,stationary,2,2024-06-25T20:18:20.387+02:00,2024-06-23T14:58:42.261+02:00,12916,0.8439061,0.0,0.0,10229.28,20,21,2024-06-25T20:17:12.969+02:00,1029584.210595,0,175.5531,92.0745,1719336731.757089,0.0.0.0,10.206.171.234,iphone Senen,1719338624.801324,5,1719336731.748566,1,0.6,0,0.0
2024-06-25T20:19:49.259+02:00,47698,1719339589.000722,40.48036930924352,-4.071631054514875,769.0786,0.0,1.241402,156.6923277921374,180.0,3.370716562512876,4.739494370498843,-9999,1719339589.238719,-14.93809223175049,21.09151077270508,-35.90373992919922,42.14988327026367,41.8427848815918,12.04619216918945,1029587.747595625,0.038970947265625,0.08251953125,-0.9983673095703124,1029587.747595625,-0.0029121665284037,-0.0120798321440815,0.0039191078394651,1029587.743141625,9.413528442382812,23.34298706054688,-144.0635833740234,1029587.745098625,-1.215563326998867,0.0352327461262301,-0.0829221677629736,-0.0060897143557667,-0.0094742337241768,0.0032165711745619,0.002249177545309,-0.0003076717257499,0.0025067329406738,XArbitraryCorrectedZVertical,0.0239704448055074,-0.0381142057072483,0.5710679024120209,-0.8196671306266985,0.0351044200360775,0.0828271731734275,-0.9959454536437988,-14.92261028289795,21.08378982543945,-35.76784515380859,-1,2,1029499.671203875,stationary,2,2024-06-25T20:18:20.387+02:00,2024-06-23T14:58:42.261+02:00,12916,0.8439061,0.0,0.0,10229.28,20,21,2024-06-25T20:17:12.969+02:00,1029584.210595,0,175.5531,92.0745,1719336731.757089,0.0.0.0,10.206.171.234,iphone Senen,1719338624.801324,5,1719336731.748566,1,0.6,0,0.0
2024-06-25T20:19:49.319+02:00,47699,1719339589.000722,40.48036930924352,-4.071631054514875,769.0786,0.0,1.241402,156.6923277921374,180.0,3.370716562512876,4.739494370498843,-9999,1719339589.298656,-15.00907325744629,21.19878768920898,-35.70018768310547,42.13238906860352,41.82529067993164,12.04623603820801,1029587.807504625,0.030853271484375,0.08160400390625,-0.9973297119140624,1029587.807504625,0.001628789352253,-0.0099269328638911,-0.0009936253773048,1029587.803649625,9.347442626953123,23.310302734375,-143.8229522705078,1029587.805007625,-1.215319437418498,0.0348448095650124,-0.0829404622036325,0.0026264400221407,-0.0036494638770818,0.0002450493630021,-0.0018047094345092,-0.0016991943120956,-0.0033406019210815,XArbitraryCorrectedZVertical,0.0240933468668312,-0.0379574944108011,0.5709632097343361,-0.8197436524154561,0.0347179993987083,0.0828454047441482,-0.9959574937820436,-14.99545192718506,21.07190704345703,-35.54433441162109,-1,2,1029499.671203875,stationary,2,2024-06-25T20:18:20.387+02:00,2024-06-23T14:58:42.261+02:00,12916,0.8439061,0.0,0.0,10229.28,20,21,2024-06-25T20:17:12.969+02:00,1029584.210595,0,175.5531,92.0745,1719336731.757089,0.0.0.0,10.206.171.234,iphone Senen,1719338624.801324,5,1719336731.748566,1,0.6,0,0.0
2024-06-25T20:19:49.378+02:00,47700,1719339589.000722,40.48036930924352,-4.071631054514875,769.0786,0.0,1.241402,156.6923277921374,180.0,3.370716562512876,4.739494370498843,-9999,1719339589.358662,-14.9616813659668,20.88879776000977,-35.82743072509766,42.13705444335938,41.8299560546875,12.04627895355225,1029587.867413625,0.03558349609375,0.08367919921875,-0.99609375,1029587.867413625,0.0015153386630117,-0.0053697316907346,-0.0028530445415526,1029587.864155625,9.376235961914062,23.20004272460938,-143.8103637695312,1029587.864917625,-1.215502372548462,0.034664639095204,-0.0829812989379212,-0.0011646228376775,-0.0043394044041633,-0.0046968287788331,-0.0002366006374359,-0.000671774148941,-7.236003875732422e-05,XArbitraryCorrectedZVertical,0.0241580711896083,-0.0378974875381272,0.5710358093366561,-0.8196940277582874,0.0345384404063224,0.0828860998153686,-0.9959603548049928,-14.97616577148438,20.94385147094727,-35.57016754150391,-1,2,1029499.671203875,stationary,2,2024-06-25T20:18:20.387+02:00,2024-06-23T14:58:42.261+02:00,12916,0.8439061,0.0,0.0,10229.28,20,21,2024-06-25T20:17:12.969+02:00,1029584.210595,0,175.5531,92.0745,1719336731.757089,0.0.0.0,10.206.171.234,iphone Senen,1719338624.801324,5,1719336731.748566,1,0.6,0,0.0
2024-06-25T20:19:49.438+02:00,47701,1719339589.000722,40.48036930924352,-4.071631054514875,769.0786,0.0,1.241402,156.6923277921374,180.0,3.370716562512876,4.739494370498843,-9999,1719339589.418514,-15.01736640930176,20.96138000488281,-35.93624114990234,42.15767669677734,41.85057830810547,12.04630851745605,1029587.927322625,0.036041259765625,0.0812835693359375,-1.000198364257812,1029587.927322625,-0.0011638014111667,-0.0053076799958944,0.0010767159983515,1029587.924660625,9.168136596679688,23.31526184082031,-144.2338104248047,1029587.924826625,-1.215898373272333,0.0343374106717022,-0.083087048026103,-0.0003909235820174,-0.0036155330017209,0.0014579030685126,0.0043010339140892,4.680454730987549e-05,-0.0030605792999267,XArbitraryCorrectedZVertical,0.0242874010554981,-0.0377983143736027,0.571193630296902,-0.8195848154025916,0.0342122316360473,0.0829914808273315,-0.9959627985954284,-15.11604022979736,21.03018188476562,-35.93291473388672,-1,2,1029499.671203875,stationary,2,2024-06-25T20:18:20.387+02:00,2024-06-23T14:58:42.261+02:00,12916,0.8439061,0.0,0.0,10229.28,20,21,2024-06-25T20:17:12.969+02:00,1029584.210595,0,175.5531,92.0745,1719336731.757089,0.0.0.0,10.206.171.234,iphone Senen,1719338624.801324,5,1719336731.748566,1,0.6,0,0.0
2024-06-25T20:19:49.498+02:00,47702,1719339589.000722,40.48036930924352,-4.071631054514875,769.0786,0.0,1.241402,156.6923277921374,180.0,3.370716562512876,4.739494370498843,-9999,1719339589.478385,-15.05270957946777,21.08060836791992,-35.92415618896484,42.16225433349609,41.85515594482422,12.04629325866699,1029587.987231625,0.034942626953125,0.082275390625,-0.9952545166015624,1029587.987231625,-0.0031963258516043,-0.0072230254299938,0.0062698801048099,1029587.985166625,9.248565673828123,23.34185791015625,-144.0498046875,1029587.984735625,-1.215826396780259,0.0341490924823007,-0.0830215495617107,-0.0011508821044117,-0.0059471428394317,0.0030586456414312,0.0002617239952087,-0.0002236068248748,0.0011168718338012,XArbitraryCorrectedZVertical,0.024315673072957,-0.0377016017194652,0.5711621690913746,-0.8196103186617175,0.0340248569846153,0.0829262137413024,-0.9959746599197388,-15.09736347198486,21.0582160949707,-35.77260589599609,-1,2,1029499.671203875,stationary,2,2024-06-25T20:18:20.387+02:00,2024-06-23T14:58:42.261+02:00,12916,0.8439061,0.0,0.0,10229.28,20,21,2024-06-25T20:17:12.969+02:00,1029584.210595,0,175.5531,92.0745,1719336731.757089,0.0.0.0,10.206.171.234,iphone Senen,1719338624.801324,5,1719336731.748566,1,0.6,0,0.0
2024-06-25T20:19:49.558+02:00,47703,1719339589.000722,40.48036930924352,-4.071631054514875,769.0786,0.0,1.241402,156.6923277921374,180.0,3.370716562512876,4.739494370498843,-9999,1719339589.538198,-15.07794952392578,20.99517059326172,-35.73639678955078,42.15102386474609,41.84392547607422,12.04630756378174,1029588.047140625,0.0339813232421875,0.082244873046875,-0.997283935546875,1029588.047140625,-0.0006330333999358,-0.0017467673169448,0.0007827030494809,1029588.045671625,9.421127319335938,23.18763732910156,-144.1470489501953,1029588.044644625,-1.215658966297126,0.0339481244419763,-0.0830849517233086,0.0001072462182492,-0.0024200272746384,-0.0008549682679586,0.0026593245565891,-0.0003783479332923,0.0003860592842102,XArbitraryCorrectedZVertical,0.0244022248820997,-0.0376352686821983,0.5710907895844087,-0.819660574800293,0.0338245183229446,0.0829893946647644,-0.9959762096405028,-14.90639686584473,20.90849685668945,-35.44345855712891,-1,2,1029499.671203875,stationary,2,2024-06-25T20:18:20.387+02:00,2024-06-23T14:58:42.261+02:00,12916,0.8439061,0.0,0.0,10229.28,20,21,2024-06-25T20:17:12.969+02:00,1029585.275774,0,175.5557,92.07447,1719336731.757089,0.0.0.0,10.206.171.234,iphone Senen,1719338624.801324,5,1719336731.748566,1,0.6,0,0.0
2024-06-25T20:19:49.618+02:00,47704,1719339589.000722,40.48036930924352,-4.071631054514875,769.0786,0.0,1.241402,156.6923277921374,180.0,3.370716562512876,4.739494370498843,-9999,1719339589.59824,-14.86745262145996,21.08073043823242,-35.63703155517578,42.15675354003906,41.84965515136719,12.04635143280029,1029588.107050625,0.0327606201171875,0.0804595947265625,-0.99884033203125,1029588.107050625,-0.0013632721966132,0.0057148775085806,-0.0022389194928109,1029588.106179625,9.5582275390625,23.20948791503906,-144.0627593994141,1029588.104553625,-1.215816651198432,0.0340223803384651,-0.0830745788292751,5.52899728063494e-05,0.0050689806230366,-0.003824901767075,-0.0017023794353008,-0.0029162243008613,-0.0007447600364685,XArbitraryCorrectedZVertical,0.0243737968690808,-0.0376646655568163,0.5711563637204324,-0.8196144043577723,0.0338985063135623,0.0829790532588958,-0.995974600315094,-14.97231578826904,21.05416488647461,-35.72867584228516,-1,2,1029499.671203875,stationary,2,2024-06-25T20:18:20.387+02:00,2024-06-23T14:58:42.261+02:00,12916,0.8439061,0.0,0.0,10229.28,20,21,2024-06-25T20:17:12.969+02:00,1029585.275774,0,175.5557,92.07447,1719336731.757089,0.0.0.0,10.206.171.234,iphone Senen,1719338624.801324,5,1719336731.748566,1,0.6,0,0.0
2024-06-25T20:19:49.678+02:00,47705,1719339589.000722,40.48036930924352,-4.071631054514875,769.0786,0.0,1.241402,156.6923277921374,180.0,3.370716562512876,4.739494370498843,-9999,1719339589.658157,-14.88841342926025,21.04532241821289,-35.85517120361328,42.16452026367188,41.857421875,12.04639625549316,1029588.166959625,0.03387451171875,0.083343505859375,-1.000350952148438,1029588.166959625,-0.0002740392810665,0.0151459295302629,-0.0008844357798807,1029588.166684625,9.432144165039062,23.24647521972656,-144.3339538574219,1029588.164462625,-1.215910047447651,0.0347239085395509,-0.0831778295972561,-0.0021430945489555,0.0168775096535682,-0.0029084412381052,0.0003000274300575,0.0006887689232826,-0.0034781694412231,XArbitraryCorrectedZVertical,0.0242140347255584,-0.0379827135424557,0.5712026703387111,-0.8195721352332407,0.0345969051122665,0.0830819532275199,-0.995941996574402,-14.95704936981201,21.01395034790039,-35.79645538330078,-1,2,1029499.671203875,stationary,2,2024-06-25T20:18:20.387+02:00,2024-06-23T14:58:42.261+02:00,12916,0.8439061,0.0,0.0,10229.28,20,21,2024-06-25T20:17:12.969+02:00,1029585.275774,0,175.5557,92.07447,1719336731.757089,0.0.0.0,10.206.171.234,iphone Senen,1719338624.801324,5,1719336731.748566,1,0.6,0,0.0
2024-06-25T20:19:49.738+02:00,47706,1719339589.000722,40.48036930924352,-4.071631054514875,769.0786,0.0,1.241402,156.6923277921374,180.0,3.370716562512876,4.739494370498843,-9999,1719339589.718034,-14.6512622833252,20.96907424926758,-36.07790374755859,42.16696166992188,41.85986328125,12.04639625549316,1029588.226868625,0.0373687744140625,0.0807647705078125,-0.9976959228515624,1029588.226868625,0.0006364954751916,0.0129413651302456,0.0011859056539833,1029588.227189625,9.6358642578125,23.36062622070312,-144.0067443847656,1029588.224372625,-1.215968401315065,0.0356095689360192,-0.0830780332180571,-0.0015676384791731,0.0114609915763139,-0.0009788312017917,-0.0001855939626693,-0.0032553672790527,-0.0005101561546325,XArbitraryCorrectedZVertical,0.0239190312191829,-0.0383179011566059,0.5712377178802243,-0.819540685834248,0.0354792512953281,0.0829825028777122,-0.9959192276000975,-14.71505165100098,20.92542266845703,-35.92018890380859,-1,2,1029499.671203875,stationary,2,2024-06-25T20:18:20.387+02:00,2024-06-23T14:58:42.261+02:00,12916,0.8439061,0.0,0.0,10229.28,20,21,2024-06-25T20:17:12.969+02:00,1029585.275774,0,175.5557,92.07447,1719336731.757089,0.0.0.0,10.206.171.234,iphone Senen,1719338624.801324,5,1719336731.748566,1,0.6,0,0.0
2024-06-25T20:19:49.798+02:00,47707,1719339589.000722,40.48036930924352,-4.071631054514875,769.0786,0.0,1.241402,156.6923277921374,180.0,3.370716562512876,4.739494370498843,-9999,1719339589.777935,-14.68807506561279,20.92157363891602,-35.84127044677734,42.16523742675781,41.85813903808594,12.04642581939697,1029588.286777625,0.0387725830078125,0.0837860107421875,-0.995880126953125,1029588.286777625,-0.0011928298044949,-0.0060331248678267,-0.0003946804790757,1029588.287696625,9.66168212890625,23.09619140625,-143.9800567626953,1029588.284281625,-1.215889101598793,0.0359656617398598,-0.0831091637900702,-0.0004241035785526,-0.0039354991167783,0.0004337843856774,0.0004211664199829,0.0006961598992347,0.0013513565063476,XArbitraryCorrectedZVertical,0.0238316200059936,-0.0384717393193779,0.5712093163077371,-0.8195559228921806,0.0358337983489036,0.0830135196447372,-0.9959039688110352,-14.52514362335205,20.86710357666016,-35.81461334228516,-1,2,1029499.671203875,stationary,2,2024-06-25T20:18:20.387+02:00,2024-06-23T14:58:42.261+02:00,12916,0.8439061,0.0,0.0,10229.28,20,21,2024-06-25T20:17:12.969+02:00,1029585.275774,0,175.5557,92.07447,1719336731.757089,0.0.0.0,10.206.171.234,iphone Senen,1719338624.801324,5,1719336731.748566,1,0.6,0,0.0
2024-06-25T20:19:49.858+02:00,47708,1719339589.000722,40.48036930924352,-4.071631054514875,769.0786,0.0,1.241402,156.6923277921374,180.0,3.370716562512876,4.739494370498843,-9999,1719339589.83786,-14.74830627441406,20.87826156616211,-36.05979156494141,42.16420364379883,41.85710525512695,12.0464563369751,1029588.346686625,0.0366058349609375,0.0800323486328125,-0.9983978271484376,1029588.346686625,0.0030850057955831,-0.0215713381767272,0.0013707289472222,1029588.348200625,9.343124389648438,23.11192321777344,-144.2548828125,1029588.344190625,-1.21589333984536,0.0352245589641032,-0.0830868093160878,-4.75873239338398e-05,-0.0203190725296735,-0.0004629686591215,0.0021662600338459,-0.0018145218491554,-0.0055785179138183,XArbitraryCorrectedZVertical,0.0240340302440179,-0.0381617278856352,0.5712022830140203,-0.8195694305762239,0.0350957848131656,0.0829912424087524,-0.9959321022033693,-14.92517566680908,20.88171768188477,-35.89310455322266,-1,2,1029499.671203875,stationary,2,2024-06-25T20:18:20.387+02:00,2024-06-23T14:58:42.261+02:00,12916,0.8439061,0.0,0.0,10229.28,20,21,2024-06-25T20:17:12.969+02:00,1029585.275774,0,175.5557,92.07447,1719336731.757089,0.0.0.0,10.206.171.234,iphone Senen,1719338624.801324,5,1719336731.748566,1,0.6,0,0.0
2024-06-25T20:19:49.918+02:00,47709,1719339589.000722,40.48036930924352,-4.071631054514875,769.0786,0.0,1.241402,156.6923277921374,180.0,3.370716562512876,4.739494370498843,-9999,1719339589.897777,-15.04212856292725,21.06356811523438,-35.96599578857422,42.16553497314453,41.85843658447266,12.04647159576416,1029588.406595625,0.0364532470703125,0.0831146240234375,-0.998443603515625,1029588.406595625,-0.0009856359101831,-0.0265197586268186,0.0037023264449089,1029588.408705625,9.29400634765625,23.58291625976562,-144.0289001464844,1029588.404099625,-1.215869128940168,0.0338054833184859,-0.0830800130435509,-0.003304211422801,-0.0225896704941988,0.0036884499713778,0.0015501603484153,0.0012134909629821,-0.0003716945648193,XArbitraryCorrectedZVertical,0.024436979719057,-0.0375779762432032,0.5711752186814154,-0.8196032239223384,0.0336824655532836,0.0829844698309898,-0.9959814548492432,-14.90767383575439,21.04281997680664,-35.82434844970703,-1,2,1029499.671203875,stationary,2,2024-06-25T20:18:20.387+02:00,2024-06-23T14:58:42.261+02:00,12916,0.8439061,0.0,0.0,10229.28,20,21,2024-06-25T20:17:12.969+02:00,1029585.275774,0,175.5557,92.07447,1719336731.757089,0.0.0.0,10.206.171.234,iphone Senen,1719338624.801324,5,1719336731.748566,1,0.6,0,0.0
2024-06-25T20:19:49.977+02:00,47710,1719339589.000722,40.48036930924352,-4.071631054514875,769.0786,0.0,1.241402,156.6923277921374,180.0,3.370716562512876,4.739494370498843,-9999,1719339589.957647,-15.15841770172119,21.02897644042969,-35.75603485107422,42.15179443359375,41.84469604492188,12.04648590087891,1029588.466505625,0.0322113037109375,0.0810699462890625,-0.99896240234375,1029588.466505625,-0.0001078580244211,-0.0095200017094612,0.0057417750358581,1029588.469211625,9.369003295898438,23.21585083007812,-144.1427001953125,1029588.464008625,-1.215610969970393,0.0329477707187163,-0.0830971913185975,0.0007601463003084,-0.00757238548249,0.0050348611548542,-0.0002963170409202,-0.0019774585962295,-0.0033658146858215,XArbitraryCorrectedZVertical,0.0246937817636604,-0.0372281895520417,0.5710587971061793,-0.8196926139046145,0.0328281410038471,0.0830015912652015,-0.996008574962616,-15.02102565765381,21.07315826416016,-35.78054046630859,-1,2,1029499.671203875,stationary,2,2024-06-25T20:18:20.387+02:00,2024-06-23T14:58:42.261+02:00,12916,0.8439061,0.0,0.0,10229.28,20,21,2024-06-25T20:17:12.969+02:00,1029585.275774,0,175.5557,92.07447,1719336731.757089,0.0.0.0,10.206.171.234,iphone Senen,1719338624.801324,5,1719336731.748566,1,0.6,0,0.0
2024-06-25T20:19:50.037+02:00,47711,1719339589.000722,40.48036930924352,-4.071631054514875,769.0786,0.0,1.241402,156.6923277921374,180.0,3.370716562512876,4.739494370498843,-9999,1719339590.017527,-14.95707416534424,20.82881164550781,-35.81618499755859,42.14731979370117,41.8402214050293,12.04653072357178,1029588.526414625,0.030029296875,0.0808868408203125,-0.9955902099609376,1029588.526414625,0.0032040490768849,0.0042850263416767,-0.0041308291256427,1029588.499463625,9.224655151367188,23.14222717285156,-143.9470825195312,1029588.523917625,-1.215615491015319,0.032952698856917,-0.0830565866100467,0.0030662883073091,0.0045433030463755,-0.0035588601604104,-0.0035362020134925,-0.0009451657533645,-0.0005549788475036,XArbitraryCorrectedZVertical,0.0246756339290248,-0.0372186882268028,0.5710608986052609,-0.81969224564077,0.0328331626951694,0.0829611271619796,-0.9960117936134338,-14.99623966217041,20.84253692626953,-35.91730499267578,-1,2,1029499.671203875,stationary,2,2024-06-25T20:18:20.387+02:00,2024-06-23T14:58:42.261+02:00,12916,0.8439061,0.0,0.0,10229.28,20,21,2024-06-25T20:17:12.969+02:00,1029585.275774,0,175.5557,92.07447,1719336731.757089,0.0.0.0,10.206.171.234,iphone Senen,1719338624.801324,5,1719336731.748566,1,0.6,0,0.0
2024-06-25T20:19:50.097+02:00,47712,1719339590.000733,40.48036930924352,-4.071631054514875,769.0786,0.0,1.290609,156.6923277921374,180.0,3.371768034906163,4.738746390299218,-9999,1719339590.077538,-15.08518409729004,21.03773498535156,-35.92668914794922,42.16156768798828,41.85446929931641,12.0465612411499,1029588.586323625,0.0355377197265625,0.0824127197265625,-0.9990386962890624,1029588.586323625,-0.0031582426745444,0.0125799737870693,-0.0025086977984756,1029588.559967625,9.237960815429688,23.36103820800781,-144.2496337890625,1029588.583826625,-1.215990455026839,0.0335693124556569,-0.083152681053079,-0.0026751537807285,0.0142915695905685,-0.0029412810690701,0.0013278238475322,-0.0001711845397949,-0.0017430782318115,XArbitraryCorrectedZVertical,0.0245319605880503,-0.0375033922006029,0.5712216851819216,-0.8195714226486523,0.033447042107582,0.0830568894743919,-0.995983362197876,-14.99135684967041,20.98491668701172,-36.22743988037109,-1,2,1029499.671203875,stationary,2,2024-06-25T20:18:20.387+02:00,2024-06-23T14:58:42.261+02:00,12916,0.8439061,0.0,0.0,10229.28,20,21,2024-06-25T20:17:12.969+02:00,1029585.275774,0,175.5557,92.07447,1719336731.757089,0.0.0.0,10.206.171.234,iphone Senen,1719338624.801324,5,1719336731.748566,1,0.6,0,0.0
2024-06-25T20:19:50.157+02:00,47713,1719339590.000733,40.48036930924352,-4.071631054514875,769.0786,0.0,1.290609,156.6923277921374,180.0,3.371768034906163,4.738746390299218,-9999,1719339590.137422,-15.09514331817627,21.19484710693359,-36.01206207275391,42.17637252807617,41.8692741394043,12.04651737213135,1029588.646232792,0.0356597900390625,0.081207275390625,-0.995849609375,1029588.646232792,-0.0002197107824031,0.0128018148243427,0.0050149988383054,1029588.620469625,9.298416137695312,23.47427368164062,-144.2649841308594,1029588.643736792,-1.216151192769343,0.0344894285293142,-0.0830973685317545,-0.0008540353155694,0.0140533484518528,0.0040665115229785,0.0007011778652667,-0.0025879815220832,-0.0009914636611938,XArbitraryCorrectedZVertical,0.0242434314409561,-0.0378666200599903,0.5712990359320668,-0.8195094196964912,0.034363605082035,0.0830017700791358,-0.9959567785263062,-15.16515350341797,21.26646423339844,-36.09186553955078,-1,2,1029499.671203875,stationary,2,2024-06-25T20:18:20.387+02:00,2024-06-23T14:58:42.261+02:00,12916,0.8439061,0.0,0.0,10229.28,20,21,2024-06-25T20:17:12.969+02:00,1029585.275774,0,175.5557,92.07447,1719336731.757089,0.0.0.0,10.206.171.234,iphone Senen,1719338624.801324,5,1719336731.748566,1,0.6,0,0.0
2024-06-25T20:19:50.217+02:00,47714,1719339590.000733,40.48036930924352,-4.071631054514875,769.0786,0.0,1.290609,156.6923277921374,180.0,3.371768034906163,4.738746390299218,-9999,1719339590.197419,-15.10448741912842,21.13814163208008,-36.00055694580078,42.18083572387695,41.87373733520508,12.04647350311279,1029588.706141792,0.0360260009765625,0.0833587646484375,-0.996185302734375,1029588.706141792,-0.0024399880785495,-0.0008093346259556,-6.924218723725062e-06,1029588.680973792,9.238739013671877,23.38363647460938,-144.3132781982422,1029588.703645792,-1.216142031049703,0.0351006720933098,-0.0831452259846387,-5.851199966855347e-05,0.0020875059999525,-0.0002519795671105,-0.0009145326912403,-0.0015217810869216,-0.0018101334571838,XArbitraryCorrectedZVertical,0.0240886332101927,-0.0381306087952798,0.5713024374505394,-0.8194993945020214,0.0349722318351268,0.0830494612455368,-0.9959315657615662,-15.04423332214355,21.22893142700195,-35.75211334228516,-1,2,1029499.671203875,stationary,2,2024-06-25T20:18:20.387+02:00,2024-06-23T14:58:42.261+02:00,12916,0.8439061,0.0,0.0,10229.28,20,21,2024-06-25T20:17:12.969+02:00,1029585.275774,0,175.5557,92.07447,1719336731.757089,0.0.0.0,10.206.171.234,iphone Senen,1719338624.801324,5,1719336731.748566,1,0.6,0,0.0
2024-06-25T20:19:50.277+02:00,47715,1719339590.000733,40.48036930924352,-4.071631054514875,769.0786,0.0,1.290609,156.6923277921374,180.0,3.371768034906163,4.738746390299218,-9999,1719339590.257177,-15.05389404296875,21.18384170532227,-35.74074554443359,42.18343353271484,41.87633514404297,12.04646015167236,1029588.766050792,0.0372467041015625,0.08062744140625,-0.9989013671875,1029588.766050792,-0.0008692557457834,-0.0177009664475917,-0.0055825184099376,1029588.741482792,9.2603759765625,23.43403625488281,-143.997314453125,1029588.763554792,-1.216291196848131,0.0346400676149856,-0.0832103193325809,-4.043887020088732e-05,-0.018277607858181,-0.0054687871597707,0.0017874278128147,-0.0018155425786972,-0.0028828382492065,XArbitraryCorrectedZVertical,0.0242440726183443,-0.0379622385706715,0.5713576825640315,-0.8194641174987827,0.034513309597969,0.0831143260002136,-0.9959421753883362,-14.97060775756836,21.07418441772461,-35.67064666748047,-1,2,1029499.671203875,stationary,2,2024-06-25T20:18:20.387+02:00,2024-06-23T14:58:42.261+02:00,12916,0.8439061,0.0,0.0,10229.28,20,21,2024-06-25T20:17:12.969+02:00,1029585.275774,0,175.5557,92.07447,1719336731.757089,0.0.0.0,10.206.171.234,iphone Senen,1719338624.801324,5,1719336731.748566,1,0.6,0,0.0
2024-06-25T20:19:50.337+02:00,47716,1719339590.000733,40.48036930924352,-4.071631054514875,769.0786,0.0,1.290609,156.6923277921374,180.0,3.371768034906163,4.738746390299218,-9999,1719339590.317079,-14.97371578216553,21.03987503051758,-35.75676727294922,42.1934814453125,41.88638305664062,12.04649066925049,1029588.825959792,0.0333251953125,0.0836334228515625,-0.9979400634765624,1029588.825959792,-0.0009595369338057,-0.0291182044893503,0.0027630296535789,1029588.801992792,9.370101928710938,23.35093688964844,-143.9831085205078,1029588.823463792,-1.21640646493985,0.03332650874596,-0.0832249343972297,-0.0022508290130645,-0.0251757837831974,0.0009623218211345,0.001508817076683,0.0007944107055664,-0.0004897713661193,XArbitraryCorrectedZVertical,0.0246231611857033,-0.037429604702351,0.5713887772394223,-0.8194557252743337,0.033205009996891,0.0831288918852806,-0.9959854483604432,-14.99110507965088,21.07942581176758,-35.96326446533203,-1,2,1029499.671203875,stationary,2,2024-06-25T20:18:20.387+02:00,2024-06-23T14:58:42.261+02:00,12916,0.8439061,0.0,0.0,10229.28,20,21,2024-06-25T20:17:12.969+02:00,1029585.275774,0,175.5557,92.07447,1719336731.757089,0.0.0.0,10.206.171.234,iphone Senen,1719338624.801324,5,1719336731.748566,1,0.6,0,0.0
2024-06-25T20:19:50.397+02:00,47717,1719339590.000733,40.48036930924352,-4.071631054514875,769.0786,0.0,1.290609,156.6923277921374,180.0,3.371768034906163,4.738746390299218,-9999,1719339590.376978,-15.02999210357666,21.05218887329102,-35.38027191162109,42.18207550048828,41.87497711181641,12.04650688171387,1029588.885869792,0.0317840576171875,0.0819091796875,-0.995574951171875,1029588.885869792,-0.0037569212727248,-0.0250446330755949,0.0050304448232054,1029588.862498792,9.31695556640625,23.3284912109375,-143.5802307128906,1029588.883372792,-1.216135691136013,0.0318441579629532,-0.0831532340120302,-0.0008407520945183,-0.0251865871250629,0.0033744880929589,0.0039921402931213,-0.000721052289009,0.0014106631278991,XArbitraryCorrectedZVertical,0.0250222299498768,-0.0367984030259469,0.5712598045819244,-0.8195621164102924,0.0317287668585777,0.0830574408173561,-0.9960395097732544,-15.14873504638672,21.09980392456055,-35.52846527099609,-1,2,1029499.671203875,stationary,2,2024-06-25T20:18:20.387+02:00,2024-06-23T14:58:42.261+02:00,12916,0.8439061,0.0,0.0,10229.28,20,21,2024-06-25T20:17:12.969+02:00,1029585.275774,0,175.5557,92.07447,1719336731.757089,0.0.0.0,10.206.171.234,iphone Senen,1719338624.801324,5,1719336731.748566,1,0.6,0,0.0
2024-06-25T20:19:50.457+02:00,47718,1719339590.000733,40.48036930924352,-4.071631054514875,769.0786,0.0,1.290609,156.6923277921374,180.0,3.371768034906163,4.738746390299218,-9999,1719339590.436946,-15.18929386138916,21.27554321289062,-35.61475372314453,42.17190170288086,41.86480331420898,12.04655361175537,1029588.945778792,0.02960205078125,0.0824737548828125,-0.999114990234375,1029588.945778792,0.0016410398529842,-0.0074185016565024,0.0015888419002294,1029588.923002792,9.107559204101562,23.62602233886719,-143.9362487792969,1029588.943281792,-1.215979820080064,0.0309484859347708,-0.0832302509504541,0.0039813281036913,-0.0029663322493433,-0.0012138383463025,-0.001722577959299,-0.0018506646156311,-0.0053273439407348,XArbitraryCorrectedZVertical,0.0253124871587536,-0.0364513605953233,0.5711842595639403,-0.8196212408824237,0.0308364294469356,0.083134189248085,-0.996061146259308,-15.10429286956787,21.22698593139648,-35.70970916748047,-1,2,1029499.671203875,stationary,2,2024-06-25T20:18:20.387+02:00,2024-06-23T14:58:42.261+02:00,12916,0.8439061,0.0,0.0,10229.28,20,21,2024-06-25T20:17:12.969+02:00,1029585.275774,0,175.5557,92.07447,1719336731.757089,0.0.0.0,10.206.171.234,iphone Senen,1719338624.801324,5,1719336731.748566,1,0.6,0,0.0
2024-06-25T20:19:50.517+02:00,47719,1719339590.000733,40.48036930924352,-4.071631054514875,769.0786,0.0,1.290609,156.6923277921374,180.0,3.371768034906163,4.738746390299218,-9999,1719339590.496853,-15.24727725982666,21.10451126098633,-35.86566925048828,42.17775726318359,41.87065887451172,12.04652500152588,1029589.005687792,0.031341552734375,0.0824127197265625,-0.99847412109375,1029589.005687792,-0.0002239718451164,0.0143760098144412,-0.003695135936141,1029588.983507792,9.127883911132812,23.35096740722656,-144.2498321533203,1029589.003190792,-1.216206905403967,0.0312957764295203,-0.0832718633571374,-0.0027050983626395,0.0160179268568754,-0.0043410719372332,0.0017615649849176,-0.0021973103284835,-0.0009928345680236,XArbitraryCorrectedZVertical,0.0252262154937144,-0.0366084094419566,0.5712814747450732,-0.8195491535974133,0.0311822425574064,0.0831756591796875,-0.9960469007492064,-15.27599143981934,21.24950408935547,-35.95409393310547,-1,2,1029499.671203875,stationary,2,2024-06-25T20:18:20.387+02:00,2024-06-23T14:58:42.261+02:00,12916,0.8439061,0.0,0.0,10229.28,20,21,2024-06-25T20:17:12.969+02:00,1029585.275774,0,175.5557,92.07447,1719336731.757089,0.0.0.0,10.206.171.234,iphone Senen,1719338624.801324,5,1719336731.748566,1,0.6,0,0.0
2024-06-25T20:19:50.576+02:00,47720,1719339590.000733,40.48036930924352,-4.071631054514875,769.0786,0.0,1.290609,156.6923277921374,180.0,3.371768034906163,4.738746390299218,-9999,1719339590.556758,-15.35855579376221,21.22024154663086,-35.86234283447266,42.19272613525391,41.88562774658203,12.04648208618164,1029589.065596792,0.0346832275390625,0.082672119140625,-0.99798583984375,1029589.065596792,-0.0027928571216762,0.0289333816617727,-0.0011861718958243,1029589.044014792,8.934890747070312,23.47286987304688,-144.1484222412109,1029589.063100792,-1.216401722020771,0.0326775475464144,-0.0832223628293277,-0.0010526917176321,0.0281649250537157,-6.353016942739487e-06,0.0003393776714801,0.0001408457756042,-0.0019025206565856,XArbitraryCorrectedZVertical,0.0248075977503386,-0.0371629141963052,0.5713788306731474,-0.8194692160187939,0.0325586572289466,0.0831263288855552,-0.9960070252418518,-15.10647773742676,21.13547515869141,-35.79508209228516,-1,2,1029499.671203875,stationary,2,2024-06-25T20:18:20.387+02:00,2024-06-23T14:58:42.261+02:00,12916,0.8439061,0.0,0.0,10229.28,20,21,2024-06-25T20:17:12.969+02:00,1029585.275774,0,175.5557,92.07447,1719336731.757089,0.0.0.0,10.206.171.234,iphone Senen,1719338624.801324,5,1719336731.748566,1,0.6,0,0.0
2024-06-25T20:19:50.637+02:00,47721,1719339590.000733,40.48036930924352,-4.071631054514875,769.0786,0.0,1.290609,156.6923277921374,180.0,3.371768034906163,4.738746390299218,-9999,1719339590.616784,-15.11914443969727,21.18639373779297,-36.00612640380859,42.19903945922852,41.89194107055664,12.04645538330078,1029589.125505792,0.032989501953125,0.081878662109375,-0.9966888427734376,1029589.125505792,0.0013440974289551,0.018213091418147,-0.0004780374001711,1029589.104519792,9.266021728515623,23.46865844726562,-144.2869873046875,1029589.123009792,-1.21654531040674,0.034249539114058,-0.0831938524632997,0.0025232657790184,0.0209746863692998,0.0005955132655799,0.0011234767735004,-0.002089038491249,-0.003417432308197,XArbitraryCorrectedZVertical,0.0243440816416221,-0.0378006238036321,0.5714571298853507,-0.8193992930874174,0.0341244116425514,0.0830979198217392,-0.9959569573402404,-15.19532203674316,21.11346054077148,-35.94368743896484,-1,2,1029499.671203875,stationary,2,2024-06-25T20:18:20.387+02:00,2024-06-23T14:58:42.261+02:00,12916,0.8439061,0.0,0.0,10229.28,20,21,2024-06-25T20:17:12.969+02:00,1029586.340928,0,175.5637,92.07439,1719336731.757089,0.0.0.0,10.206.171.234,iphone Senen,1719338624.801324,5,1719336731.748566,1,0.6,0,0.0
2024-06-25T20:19:50.696+02:00,47722,1719339590.000733,40.48036930924352,-4.071631054514875,769.0786,0.0,1.290609,156.6923277921374,180.0,3.371768034906163,4.738746390299218,-9999,1719339590.67657,-15.1916036605835,21.22928237915039,-36.13797760009766,42.21553802490234,41.90843963623047,12.04641246795654,1029589.185414792,0.036346435546875,0.0807342529296875,-0.997589111328125,1029589.185414792,0.0001004011719487,-0.0026373283471912,-0.001105744508095,1029589.165023792,9.095611572265623,23.52726745605469,-144.5512542724609,1029589.182918792,-1.216834288354549,0.034962824379389,-0.0832354005034383,-0.0011828917777165,-0.0002367080887779,-0.0056034019216895,0.0008404441177845,-0.0018100216984748,-0.0007141232490539,XArbitraryCorrectedZVertical,0.0241518067899372,-0.0381081939501536,0.5715839753616523,-0.8193021992033651,0.0348346829414367,0.0831393226981163,-0.9959288835525512,-15.03446578979492,21.18614196777344,-35.99837493896484,-1,2,1029499.671203875,stationary,2,2024-06-25T20:18:20.387+02:00,2024-06-23T14:58:42.261+02:00,12916,0.8439061,0.0,0.0,10229.28,20,21,2024-06-25T20:17:12.969+02:00,1029586.340928,0,175.5637,92.07439,1719336731.757089,0.0.0.0,10.206.171.234,iphone Senen,1719338624.801324,5,1719336731.748566,1,0.6,0,0.0
